Year,Month,Day,Time,Flight_Time_(s),Sync,Gyro_X,Gyro_Y,Gyro_Z,Accel_X,Accel_Y,Accel_Z,Quat_1,Quat_2,Quat_3,Quat_4,Aux_Volts,Current
2025,8,21,14:11:43.852,-2.020,109,0.1,-0.3,-0.1,-0.06,-1.00,-0.01,1.00000,0.00000,-0.00007,0.00000,0.022,0.0000
2025,8,21,14:11:43.854,-2.018,111,0.1,-0.1,0.0,-0.06,-0.99,-0.02,1.00000,0.00000,-0.00007,0.00000,0.023,0.0000
2025,8,21,14:11:43.856,-2.016,113,-0.1,0.0,0.0,-0.06,-1.00,-0.02,1.00000,0.00000,-0.00007,0.00000,0.022,0.0000
2025,8,21,14:11:43.858,-2.014,115,0.1,-0.2,0.0,-0.06,-1.00,-0.02,1.00000,0.00000,-0.00007,0.00000,0.023,0.0000
2025,8,21,14:11:43.860,-2.012,117,-0.1,0.0,-0.1,-0.06,-0.98,-0.01,1.00000,0.00000,-0.00007,0.00000,0.022,0.0000
2025,8,21,14:11:43.862,-2.010,119,0.1,-0.2,0.0,-0.06,-1.00,-0.01,1.00000,0.00000,-0.00007,0.00000,0.022,0.0000
2025,8,21,14:11:43.864,-2.008,121,0.0,0.0,0.0,-0.06,-0.99,-0.02,1.00000,0.00000,-0.00007,0.00000,0.022,0.0000
2025,8,21,14:11:43.866,-2.006,123,0.1,-0.2,0.0,-0.07,-1.00,-0.01,1.00000,0.00000,-0.00007,0.00000,0.022,0.0000
2025,8,21,14:11:43.868,-2.004,125,0.0,0.0,0.0,-0.06,-0.99,-0.02,1.00000,0.00000,-0.00007,0.00000,0.022,0.0000
2025,8,21,14:11:43.870,-2.002,127,0.1,0.0,0.0,-0.06,-0.99,-0.01,1.00000,0.00000,-0.00007,0.00000,0.022,0.0000
2025,8,21,14:11:43.872,-2.000,129,0.0,-0.1,0.1,-0.06,-0.99,-0.01,1.00000,0.00000,-0.00007,0.00000,0.022,0.0000
2025,8,21,14:11:43.874,-1.998,131,0.1,0.0,0.1,-0.06,-0.99,-0.02,1.00000,0.00000,-0.00007,0.00000,0.022,0.0000
2025,8,21,14:11:43.876,-1.996,133,0.0,-0.2,0.0,-0.06,-0.99,-0.01,1.00000,0.00000,-0.00010,0.00000,0.022,0.0000
2025,8,21,14:11:43.878,-1.994,135,0.0,-0.2,0.0,-0.06,-0.99,-0.02,1.00000,0.00000,-0.00010,0.00000,0.022,0.0000
2025,8,21,14:11:43.880,-1.992,137,0.0,-0.1,-0.1,-0.05,-0.99,-0.01,1.00000,0.00000,-0.00010,0.00000,0.022,0.0000
2025,8,21,14:11:43.882,-1.990,139,0.1,0.0,-0.1,-0.07,-0.99,-0.01,1.00000,0.00003,-0.00010,0.00000,0.022,0.0000
2025,8,21,14:11:43.884,-1.988,141,0.1,-0.4,0.1,-0.07,-0.99,-0.01,1.00000,0.00003,-0.00010,0.00000,0.022,0.0000
2025,8,21,14:11:43.886,-1.986,143,0.1,-0.1,0.0,-0.07,-1.00,-0.01,1.00000,0.00003,-0.00010,0.00000,0.022,0.0000
2025,8,21,14:11:43.888,-1.984,145,0.0,-0.1,0.0,-0.06,-0.99,-0.02,1.00000,0.00003,-0.00010,0.00000,0.022,0.0000
2025,8,21,14:11:43.890,-1.982,147,0.0,-0.2,0.0,-0.05,-1.00,-0.01,1.00000,0.00003,-0.00010,0.00000,0.022,0.0000
2025,8,21,14:11:43.892,-1.980,149,0.0,0.0,-0.1,-0.06,-0.99,-0.01,1.00000,0.00003,-0.00010,0.00000,0.022,0.0000
2025,8,21,14:11:43.894,-1.978,151,0.0,-0.1,0.0,-0.07,-0.99,0.00,1.00000,0.00003,-0.00010,0.00000,0.022,0.0000
2025,8,21,14:11:43.896,-1.976,153,0.0,-0.1,0.0,-0.06,-0.98,-0.01,1.00000,0.00003,-0.00010,0.00000,0.022,0.0000
2025,8,21,14:11:43.898,-1.974,155,0.1,0.0,0.0,-0.06,-0.99,-0.01,1.00000,0.00003,-0.00013,0.00000,0.023,0.0000
2025,8,21,14:11:43.900,-1.972,157,0.0,0.0,0.0,-0.07,-0.99,-0.01,1.00000,0.00003,-0.00010,0.00000,0.022,0.0000
2025,8,21,14:11:43.902,-1.970,159,0.1,0.0,0.0,-0.07,-0.99,-0.01,1.00000,0.00003,-0.00010,0.00000,0.022,0.0000
2025,8,21,14:11:43.904,-1.968,161,0.1,0.0,-0.1,-0.06,-0.99,-0.02,1.00000,0.00003,-0.00010,0.00000,0.022,0.0000
2025,8,21,14:11:43.906,-1.966,163,0.1,0.0,-0.1,-0.06,-0.99,-0.01,1.00000,0.00003,-0.00010,0.00000,0.022,0.0000
2025,8,21,14:11:43.908,-1.964,165,0.0,0.0,0.0,-0.06,-0.99,-0.02,1.00000,0.00003,-0.00010,0.00000,0.022,0.0000
2025,8,21,14:11:43.910,-1.962,167,0.1,0.0,-0.1,-0.07,-0.99,-0.02,1.00000,0.00003,-0.00013,0.00000,0.022,0.0000
2025,8,21,14:11:43.912,-1.960,169,0.0,0.0,0.0,-0.06,-0.99,0.00,1.00000,0.00003,-0.00010,0.00000,0.023,0.0000
2025,8,21,14:11:43.914,-1.958,171,0.0,0.2,0.0,-0.06,-1.00,-0.01,1.00000,0.00003,-0.00010,0.00000,0.022,0.0000
2025,8,21,14:11:43.916,-1.956,173,0.1,0.0,0.0,-0.06,-1.00,-0.01,1.00000,0.00003,-0.00010,0.00000,0.023,0.0000
2025,8,21,14:11:43.918,-1.954,175,0.0,0.2,0.0,-0.06,-1.00,-0.03,1.00000,0.00003,-0.00010,0.00000,0.022,0.0000
2025,8,21,14:11:43.920,-1.952,177,0.0,0.0,0.0,-0.06,-0.99,-0.01,1.00000,0.00003,-0.00010,0.00000,0.022,0.0000
2025,8,21,14:11:43.922,-1.950,179,0.0,0.1,0.0,-0.06,-0.99,-0.02,1.00000,0.00003,-0.00010,0.00000,0.022,0.0000
2025,8,21,14:11:43.924,-1.948,181,0.0,0.1,0.0,-0.06,-1.00,-0.01,1.00000,0.00003,-0.00010,0.00000,0.022,0.0000
2025,8,21,14:11:43.926,-1.946,183,0.0,0.2,0.0,-0.06,-0.99,-0.01,1.00000,0.00003,-0.00010,0.00000,0.022,0.0000
2025,8,21,14:11:43.928,-1.944,185,0.0,0.2,0.0,-0.06,-1.00,-0.02,1.00000,0.00003,-0.00010,0.00000,0.022,0.0000
2025,8,21,14:11:43.930,-1.942,187,0.1,0.1,0.1,-0.06,-0.99,-0.02,1.00000,0.00003,-0.00010,0.00000,0.022,0.0000
2025,8,21,14:11:43.932,-1.940,189,0.0,0.2,0.0,-0.06,-0.99,-0.01,1.00000,0.00003,-0.00010,0.00000,0.022,0.0000
2025,8,21,14:11:43.934,-1.938,191,0.0,0.1,0.0,-0.06,-0.98,-0.01,1.00000,0.00003,-0.00007,0.00000,0.022,0.0000
2025,8,21,14:11:43.936,-1.936,193,0.1,0.0,0.0,-0.06,-0.99,-0.01,1.00000,0.00003,-0.00007,0.00000,0.022,0.0000
2025,8,21,14:11:43.938,-1.934,195,0.0,0.1,0.0,-0.06,-0.99,-0.02,1.00000,0.00003,-0.00007,0.00000,0.022,0.0000
2025,8,21,14:11:43.940,-1.932,197,0.0,0.2,0.0,-0.07,-0.99,-0.02,1.00000,0.00003,-0.00007,0.00000,0.022,0.0000
2025,8,21,14:11:43.942,-1.930,199,0.1,0.1,0.0,-0.06,-0.99,-0.02,1.00000,0.00007,-0.00007,0.00000,0.022,0.0000
2025,8,21,14:11:43.944,-1.928,201,0.0,0.0,0.1,-0.06,-0.98,-0.03,1.00000,0.00007,-0.00007,0.00000,0.022,0.0000
2025,8,21,14:11:43.946,-1.926,203,0.0,0.1,0.0,-0.06,-0.99,-0.02,1.00000,0.00007,-0.00007,0.00000,0.022,0.0000
2025,8,21,14:11:43.948,-1.924,205,0.0,0.0,-0.1,-0.06,-0.99,-0.01,1.00000,0.00007,-0.00007,0.00000,0.022,0.0000
2025,8,21,14:11:43.950,-1.922,207,0.1,-0.8,0.1,-0.06,-0.98,-0.02,1.00000,0.00007,-0.00010,0.00000,0.022,0.0000
2025,8,21,14:11:43.952,-1.920,209,-0.5,2.8,0.0,-0.07,-1.00,-0.01,1.00000,0.00003,-0.00003,0.00000,0.023,0.0000
2025,8,21,14:11:43.954,-1.918,211,0.7,-3.4,-0.1,-0.06,-0.98,-0.02,1.00000,0.00007,-0.00010,0.00000,0.022,0.0000
2025,8,21,14:11:43.956,-1.916,213,-1.2,5.6,0.0,-0.06,-0.98,-0.02,1.00000,0.00003,0.00000,0.00000,0.022,0.0000
2025,8,21,14:11:43.958,-1.914,215,0.8,-4.2,0.0,-0.06,-1.00,-0.02,1.00000,0.00007,-0.00007,0.00000,0.022,0.0000
2025,8,21,14:11:43.960,-1.912,217,-1.4,7.0,-0.1,-0.06,-1.01,-0.02,1.00000,0.00003,0.00000,0.00000,0.022,0.0000
2025,8,21,14:11:43.962,-1.910,219,1.0,-4.4,0.0,-0.06,-0.99,-0.02,1.00000,0.00003,-0.00003,0.00000,0.022,0.0000
2025,8,21,14:11:43.964,-1.908,221,-1.4,6.6,0.0,-0.06,-0.99,-0.03,1.00000,0.00003,0.00007,0.00000,0.022,0.0000
2025,8,21,14:11:43.966,-1.906,223,1.1,-5.0,0.0,-0.06,-1.00,-0.03,1.00000,0.00003,0.00000,0.00000,0.022,0.0000
2025,8,21,14:11:43.968,-1.904,225,-0.7,4.4,0.0,-0.05,-0.98,-0.01,1.00000,0.00003,0.00003,0.00000,0.022,0.0000
2025,8,21,14:11:43.970,-1.902,227,0.7,-4.1,0.0,-0.06,-0.98,-0.02,1.00000,0.00003,0.00000,0.00000,0.022,0.0000
2025,8,21,14:11:43.972,-1.900,229,0.1,1.3,0.1,-0.07,-1.00,-0.01,1.00000,0.00003,0.00000,0.00000,0.022,0.0000
2025,8,21,14:11:43.974,-1.898,231,0.3,-2.1,0.1,-0.06,-1.00,0.00,1.00000,0.00003,0.00000,0.00000,0.022,0.0000
2025,8,21,14:11:43.976,-1.896,233,-0.5,2.9,0.0,-0.06,-1.00,-0.01,1.00000,0.00003,0.00000,0.00000,0.022,0.0000
2025,8,21,14:11:43.978,-1.894,235,-0.3,0.4,0.0,-0.05,-0.99,-0.02,1.00000,0.00003,0.00000,0.00000,0.022,0.0000
2025,8,21,14:11:43.980,-1.892,237,0.0,1.7,0.0,-0.06,-0.98,-0.02,1.00000,0.00003,0.00003,0.00000,0.022,0.0000
2025,8,21,14:11:43.982,-1.890,239,-0.7,3.1,0.0,-0.05,-1.00,-0.02,1.00000,0.00000,0.00010,0.00000,0.022,0.0000
2025,8,21,14:11:43.984,-1.888,241,0.4,-0.6,0.1,-0.05,-1.01,-0.02,1.00000,0.00003,0.00010,0.00000,0.022,0.0000
2025,8,21,14:11:43.986,-1.886,243,0.4,-3.0,0.1,-0.06,-1.00,-0.02,1.00000,0.00003,0.00003,0.00000,0.022,0.0000
2025,8,21,14:11:43.988,-1.884,245,0.9,-3.0,0.0,-0.06,-0.98,-0.03,1.00000,0.00003,0.00000,0.00000,0.022,0.0000
2025,8,21,14:11:43.990,-1.882,247,0.0,-0.6,-0.1,-0.06,-0.99,-0.03,1.00000,0.00003,0.00000,0.00000,0.022,0.0000
2025,8,21,14:11:43.992,-1.880,249,1.2,-4.4,0.1,-0.06,-0.99,-0.02,1.00000,0.00007,-0.00007,0.00000,0.022,0.0000
2025,8,21,14:11:43.994,-1.878,1,-0.5,1.8,0.0,-0.05,-0.98,0.00,1.00000,0.00007,-0.00003,0.00000,0.023,0.0000
2025,8,21,14:11:43.996,-1.876,3,0.9,-4.4,0.0,-0.06,-1.00,-0.02,1.00000,0.00007,-0.00010,0.00000,0.022,0.0000
2025,8,21,14:11:43.998,-1.874,5,-0.8,3.7,0.0,-0.06,-1.00,0.00,1.00000,0.00007,-0.00007,0.00000,0.022,0.0000
2025,8,21,14:11:44.000,-1.872,7,0.7,-1.8,0.1,-0.07,-1.00,-0.02,1.00000,0.00007,-0.00010,0.00000,0.022,0.0000
2025,8,21,14:11:44.002,-1.870,9,-0.8,4.0,0.0,-0.05,-0.99,-0.03,1.00000,0.00007,0.00000,0.00000,0.022,0.0000
2025,8,21,14:11:44.004,-1.868,11,0.9,-3.8,0.0,-0.04,-0.99,-0.01,1.00000,0.00007,-0.00007,0.00000,0.022,0.0000
2025,8,21,14:11:44.006,-1.866,13,-0.5,2.7,0.0,-0.06,-0.99,-0.02,1.00000,0.00007,-0.00003,0.00000,0.023,0.0000
2025,8,21,14:11:44.008,-1.864,15,1.0,-4.5,0.0,-0.06,-0.99,-0.02,1.00000,0.00010,-0.00010,0.00000,0.022,0.0000
2025,8,21,14:11:44.010,-1.862,17,-0.9,4.3,-0.1,-0.05,-1.00,-0.02,1.00000,0.00007,-0.00003,0.00000,0.022,0.0000
2025,8,21,14:11:44.012,-1.860,19,0.6,-3.2,-0.1,-0.06,-0.98,-0.02,1.00000,0.00007,-0.00010,0.00000,0.023,0.0000
2025,8,21,14:11:44.014,-1.858,21,-0.9,4.7,0.0,-0.06,-0.98,-0.01,1.00000,0.00007,0.00000,0.00000,0.022,0.0000
2025,8,21,14:11:44.016,-1.856,23,0.0,-0.9,0.0,-0.05,-1.01,-0.01,1.00000,0.00007,-0.00003,0.00000,0.022,0.0000
2025,8,21,14:11:44.018,-1.854,25,-0.7,3.5,0.0,-0.06,-1.00,-0.01,1.00000,0.00003,0.00000,0.00000,0.024,0.0000
2025,8,21,14:11:44.020,-1.852,27,-0.6,1.7,0.0,-0.06,-0.98,-0.02,1.00000,0.00003,0.00003,0.00000,0.025,0.0000
2025,8,21,14:11:44.022,-1.850,29,0.1,1.1,0.1,-0.07,-1.00,-0.02,1.00000,0.00003,0.00007,0.00000,0.024,0.0000
2025,8,21,14:11:44.024,-1.848,31,0.7,-3.4,0.0,-0.07,-1.00,-0.01,1.00000,0.00007,0.00000,0.00000,0.024,0.0000
2025,8,21,14:11:44.026,-1.846,33,0.7,-1.5,0.0,-0.05,-0.98,-0.01,1.00000,0.00007,0.00000,0.00000,0.023,0.0000
2025,8,21,14:11:44.028,-1.844,35,0.0,-1.1,0.0,-0.04,-0.97,-0.02,1.00000,0.00007,-0.00003,0.00000,0.024,0.0000
2025,8,21,14:11:44.030,-1.842,37,1.0,-3.7,0.1,-0.06,-0.99,-0.01,1.00000,0.00010,-0.00010,0.00000,0.024,0.0000
2025,8,21,14:11:44.032,-1.840,39,-0.4,1.4,0.1,-0.06,-0.99,-0.02,1.00000,0.00007,-0.00007,0.00000,0.025,0.0000
2025,8,21,14:11:44.034,-1.838,41,0.0,1.1,0.0,-0.06,-0.99,-0.02,1.00000,0.00007,-0.00003,0.00000,0.024,0.0000
2025,8,21,14:11:44.036,-1.836,43,-0.9,3.7,0.1,-0.05,-0.99,-0.02,1.00000,0.00007,0.00000,0.00000,0.025,0.0000
2025,8,21,14:11:44.038,-1.834,45,0.6,-1.4,0.0,-0.05,-0.98,-0.01,1.00000,0.00007,0.00000,0.00000,0.024,0.0000
2025,8,21,14:11:44.040,-1.832,47,-0.9,4.4,0.0,-0.06,-1.00,-0.02,1.00000,0.00007,0.00003,0.00000,0.024,0.0000
2025,8,21,14:11:44.042,-1.830,49,1.0,-3.7,0.0,-0.06,-1.01,-0.02,1.00000,0.00007,0.00000,0.00000,0.024,0.0000
2025,8,21,14:11:44.044,-1.828,51,-0.6,3.5,0.0,-0.06,-0.97,-0.02,1.00000,0.00007,0.00003,0.00000,0.025,0.0000
2025,8,21,14:11:44.046,-1.826,53,1.1,-4.6,0.0,-0.06,-0.98,-0.02,1.00000,0.00007,0.00000,0.00000,0.024,0.0000
2025,8,21,14:11:44.048,-1.824,55,-0.9,3.3,0.1,-0.06,-0.99,-0.02,1.00000,0.00007,0.00000,0.00000,0.024,0.0000
2025,8,21,14:11:44.050,-1.822,57,0.7,-3.9,0.0,-0.06,-0.99,-0.02,1.00000,0.00007,-0.00003,0.00000,0.025,0.0000
2025,8,21,14:11:44.052,-1.820,59,-0.9,4.2,0.0,-0.05,-0.99,-0.01,1.00000,0.00007,0.00003,0.00000,0.025,0.0000
2025,8,21,14:11:44.054,-1.818,61,0.2,-1.9,0.1,-0.07,-1.00,-0.01,1.00000,0.00007,0.00000,0.00000,0.024,0.0000
2025,8,21,14:11:44.056,-1.816,63,-0.7,3.2,0.1,-0.06,-1.00,-0.01,1.00000,0.00007,0.00003,0.00000,0.024,0.0000
2025,8,21,14:11:44.058,-1.814,65,1.2,-4.4,0.0,-0.07,-0.98,-0.02,1.00000,0.00007,0.00000,0.00000,0.024,0.0000
2025,8,21,14:11:44.060,-1.812,67,-0.3,2.7,0.0,-0.05,-0.98,-0.02,1.00000,0.00007,0.00000,0.00000,0.024,0.0000
2025,8,21,14:11:44.062,-1.810,69,0.9,-4.1,0.0,-0.06,-0.99,-0.01,1.00000,0.00010,-0.00003,0.00000,0.023,0.0000
2025,8,21,14:11:44.064,-1.808,71,-0.3,2.8,0.0,-0.06,-1.00,-0.01,1.00000,0.00007,0.00000,0.00000,0.022,0.0000
2025,8,21,14:11:44.066,-1.806,73,0.6,-3.3,0.0,-0.06,-0.99,-0.01,1.00000,0.00010,-0.00003,0.00000,0.022,0.0000
2025,8,21,14:11:44.068,-1.804,75,-0.4,2.6,0.0,-0.06,-0.99,-0.01,1.00000,0.00007,0.00000,0.00000,0.022,0.0000
2025,8,21,14:11:44.070,-1.802,77,0.3,-2.3,0.1,-0.06,-0.99,-0.01,1.00000,0.00010,-0.00003,0.00000,0.023,0.0000
2025,8,21,14:11:44.072,-1.800,79,0.3,-1.5,0.0,-0.07,-1.00,-0.02,1.00000,0.00010,-0.00007,0.00000,0.022,0.0000
2025,8,21,14:11:44.074,-1.798,81,0.1,-1.3,0.1,-0.06,-0.99,-0.02,1.00000,0.00010,-0.00007,0.00000,0.022,0.0000
2025,8,21,14:11:44.076,-1.796,83,0.5,-1.8,0.0,-0.06,-0.99,-0.01,1.00000,0.00010,-0.00010,0.00000,0.022,0.0000
2025,8,21,14:11:44.078,-1.794,85,0.0,-0.4,0.0,-0.06,-1.00,0.00,1.00000,0.00010,-0.00013,0.00000,0.022,0.0000
2025,8,21,14:11:44.080,-1.792,87,0.3,-1.8,0.0,-0.06,-0.98,-0.01,1.00000,0.00010,-0.00017,0.00000,0.022,0.0000
2025,8,21,14:11:44.082,-1.790,89,-0.1,1.0,0.0,-0.07,-0.99,-0.01,1.00000,0.00010,-0.00013,0.00000,0.022,0.0000
2025,8,21,14:11:44.084,-1.788,91,0.3,-1.6,0.0,-0.06,-0.99,-0.01,1.00000,0.00010,-0.00017,0.00000,0.022,0.0000
2025,8,21,14:11:44.086,-1.786,109,0.1,-0.3,-0.1,-0.06,-1.00,-0.01,1.00000,0.00000,-0.00007,0.00000,0.022,0.0000
2025,8,21,14:11:44.088,-1.784,111,0.1,-0.1,0.0,-0.06,-0.99,-0.02,1.00000,0.00000,-0.00007,0.00000,0.023,0.0000
2025,8,21,14:11:44.090,-1.782,113,-0.1,0.0,0.0,-0.06,-1.00,-0.02,1.00000,0.00000,-0.00007,0.00000,0.022,0.0000
2025,8,21,14:11:44.092,-1.780,115,0.1,-0.2,0.0,-0.06,-1.00,-0.02,1.00000,0.00000,-0.00007,0.00000,0.023,0.0000
2025,8,21,14:11:44.094,-1.778,117,-0.1,0.0,-0.1,-0.06,-0.98,-0.01,1.00000,0.00000,-0.00007,0.00000,0.022,0.0000
2025,8,21,14:11:44.096,-1.776,119,0.1,-0.2,0.0,-0.06,-1.00,-0.01,1.00000,0.00000,-0.00007,0.00000,0.022,0.0000
2025,8,21,14:11:44.098,-1.774,121,0.0,0.0,0.0,-0.06,-0.99,-0.02,1.00000,0.00000,-0.00007,0.00000,0.022,0.0000
2025,8,21,14:11:44.100,-1.772,123,0.1,-0.2,0.0,-0.07,-1.00,-0.01,1.00000,0.00000,-0.00007,0.00000,0.022,0.0000
2025,8,21,14:11:44.102,-1.770,125,0.0,0.0,0.0,-0.06,-0.99,-0.02,1.00000,0.00000,-0.00007,0.00000,0.022,0.0000
2025,8,21,14:11:44.104,-1.768,127,0.1,0.0,0.0,-0.06,-0.99,-0.01,1.00000,0.00000,-0.00007,0.00000,0.022,0.0000
2025,8,21,14:11:44.106,-1.766,129,0.0,-0.1,0.1,-0.06,-0.99,-0.01,1.00000,0.00000,-0.00007,0.00000,0.022,0.0000
2025,8,21,14:11:44.108,-1.764,131,0.1,0.0,0.1,-0.06,-0.99,-0.02,1.00000,0.00000,-0.00007,0.00000,0.022,0.0000
2025,8,21,14:11:44.110,-1.762,133,0.0,-0.2,0.0,-0.06,-0.99,-0.01,1.00000,0.00000,-0.00010,0.00000,0.022,0.0000
2025,8,21,14:11:44.112,-1.760,135,0.0,-0.2,0.0,-0.06,-0.99,-0.02,1.00000,0.00000,-0.00010,0.00000,0.022,0.0000
2025,8,21,14:11:44.114,-1.758,137,0.0,-0.1,-0.1,-0.05,-0.99,-0.01,1.00000,0.00000,-0.00010,0.00000,0.022,0.0000
2025,8,21,14:11:44.116,-1.756,139,0.1,0.0,-0.1,-0.07,-0.99,-0.01,1.00000,0.00003,-0.00010,0.00000,0.022,0.0000
2025,8,21,14:11:44.118,-1.754,141,0.1,-0.4,0.1,-0.07,-0.99,-0.01,1.00000,0.00003,-0.00010,0.00000,0.022,0.0000
2025,8,21,14:11:44.120,-1.752,143,0.1,-0.1,0.0,-0.07,-1.00,-0.01,1.00000,0.00003,-0.00010,0.00000,0.022,0.0000
2025,8,21,14:11:44.122,-1.750,145,0.0,-0.1,0.0,-0.06,-0.99,-0.02,1.00000,0.00003,-0.00010,0.00000,0.022,0.0000
2025,8,21,14:11:44.124,-1.748,147,0.0,-0.2,0.0,-0.05,-1.00,-0.01,1.00000,0.00003,-0.00010,0.00000,0.022,0.0000
2025,8,21,14:11:44.126,-1.746,149,0.0,0.0,-0.1,-0.06,-0.99,-0.01,1.00000,0.00003,-0.00010,0.00000,0.022,0.0000
2025,8,21,14:11:44.128,-1.744,151,0.0,-0.1,0.0,-0.07,-0.99,0.00,1.00000,0.00003,-0.00010,0.00000,0.022,0.0000
2025,8,21,14:11:44.130,-1.742,153,0.0,-0.1,0.0,-0.06,-0.98,-0.01,1.00000,0.00003,-0.00010,0.00000,0.022,0.0000
2025,8,21,14:11:44.132,-1.740,155,0.1,0.0,0.0,-0.06,-0.99,-0.01,1.00000,0.00003,-0.00013,0.00000,0.023,0.0000
2025,8,21,14:11:44.134,-1.738,157,0.0,0.0,0.0,-0.07,-0.99,-0.01,1.00000,0.00003,-0.00010,0.00000,0.022,0.0000
2025,8,21,14:11:44.136,-1.736,159,0.1,0.0,0.0,-0.07,-0.99,-0.01,1.00000,0.00003,-0.00010,0.00000,0.022,0.0000
2025,8,21,14:11:44.138,-1.734,161,0.1,0.0,-0.1,-0.06,-0.99,-0.02,1.00000,0.00003,-0.00010,0.00000,0.022,0.0000
2025,8,21,14:11:44.140,-1.732,163,0.1,0.0,-0.1,-0.06,-0.99,-0.01,1.00000,0.00003,-0.00010,0.00000,0.022,0.0000
2025,8,21,14:11:44.142,-1.730,165,0.0,0.0,0.0,-0.06,-0.99,-0.02,1.00000,0.00003,-0.00010,0.00000,0.022,0.0000
2025,8,21,14:11:44.144,-1.728,167,0.1,0.0,-0.1,-0.07,-0.99,-0.02,1.00000,0.00003,-0.00013,0.00000,0.022,0.0000
2025,8,21,14:11:44.146,-1.726,169,0.0,0.0,0.0,-0.06,-0.99,0.00,1.00000,0.00003,-0.00010,0.00000,0.023,0.0000
2025,8,21,14:11:44.148,-1.724,171,0.0,0.2,0.0,-0.06,-1.00,-0.01,1.00000,0.00003,-0.00010,0.00000,0.022,0.0000
2025,8,21,14:11:44.150,-1.722,173,0.1,0.0,0.0,-0.06,-1.00,-0.01,1.00000,0.00003,-0.00010,0.00000,0.023,0.0000
2025,8,21,14:11:44.152,-1.720,175,0.0,0.2,0.0,-0.06,-1.00,-0.03,1.00000,0.00003,-0.00010,0.00000,0.022,0.0000
2025,8,21,14:11:44.154,-1.718,177,0.0,0.0,0.0,-0.06,-0.99,-0.01,1.00000,0.00003,-0.00010,0.00000,0.022,0.0000
2025,8,21,14:11:44.156,-1.716,179,0.0,0.1,0.0,-0.06,-0.99,-0.02,1.00000,0.00003,-0.00010,0.00000,0.022,0.0000
2025,8,21,14:11:44.158,-1.714,181,0.0,0.1,0.0,-0.06,-1.00,-0.01,1.00000,0.00003,-0.00010,0.00000,0.022,0.0000
2025,8,21,14:11:44.160,-1.712,183,0.0,0.2,0.0,-0.06,-0.99,-0.01,1.00000,0.00003,-0.00010,0.00000,0.022,0.0000
2025,8,21,14:11:44.162,-1.710,185,0.0,0.2,0.0,-0.06,-1.00,-0.02,1.00000,0.00003,-0.00010,0.00000,0.022,0.0000
2025,8,21,14:11:44.164,-1.708,187,0.1,0.1,0.1,-0.06,-0.99,-0.02,1.00000,0.00003,-0.00010,0.00000,0.022,0.0000
2025,8,21,14:11:44.166,-1.706,189,0.0,0.2,0.0,-0.06,-0.99,-0.01,1.00000,0.00003,-0.00010,0.00000,0.022,0.0000
2025,8,21,14:11:44.168,-1.704,191,0.0,0.1,0.0,-0.06,-0.98,-0.01,1.00000,0.00003,-0.00007,0.00000,0.022,0.0000
2025,8,21,14:11:44.170,-1.702,193,0.1,0.0,0.0,-0.06,-0.99,-0.01,1.00000,0.00003,-0.00007,0.00000,0.022,0.0000
2025,8,21,14:11:44.172,-1.700,195,0.0,0.1,0.0,-0.06,-0.99,-0.02,1.00000,0.00003,-0.00007,0.00000,0.022,0.0000
2025,8,21,14:11:44.174,-1.698,197,0.0,0.2,0.0,-0.07,-0.99,-0.02,1.00000,0.00003,-0.00007,0.00000,0.022,0.0000
2025,8,21,14:11:44.176,-1.696,199,0.1,0.1,0.0,-0.06,-0.99,-0.02,1.00000,0.00007,-0.00007,0.00000,0.022,0.0000
2025,8,21,14:11:44.178,-1.694,201,0.0,0.0,0.1,-0.06,-0.98,-0.03,1.00000,0.00007,-0.00007,0.00000,0.022,0.0000
2025,8,21,14:11:44.180,-1.692,203,0.0,0.1,0.0,-0.06,-0.99,-0.02,1.00000,0.00007,-0.00007,0.00000,0.022,0.0000
2025,8,21,14:11:44.182,-1.690,205,0.0,0.0,-0.1,-0.06,-0.99,-0.01,1.00000,0.00007,-0.00007,0.00000,0.022,0.0000
2025,8,21,14:11:44.184,-1.688,207,0.1,-0.8,0.1,-0.06,-0.98,-0.02,1.00000,0.00007,-0.00010,0.00000,0.022,0.0000
2025,8,21,14:11:44.186,-1.686,209,-0.5,2.8,0.0,-0.07,-1.00,-0.01,1.00000,0.00003,-0.00003,0.00000,0.023,0.0000
2025,8,21,14:11:44.188,-1.684,211,0.7,-3.4,-0.1,-0.06,-0.98,-0.02,1.00000,0.00007,-0.00010,0.00000,0.022,0.0000
2025,8,21,14:11:44.190,-1.682,213,-1.2,5.6,0.0,-0.06,-0.98,-0.02,1.00000,0.00003,0.00000,0.00000,0.022,0.0000
2025,8,21,14:11:44.192,-1.680,215,0.8,-4.2,0.0,-0.06,-1.00,-0.02,1.00000,0.00007,-0.00007,0.00000,0.022,0.0000
2025,8,21,14:11:44.194,-1.678,217,-1.4,7.0,-0.1,-0.06,-1.01,-0.02,1.00000,0.00003,0.00000,0.00000,0.022,0.0000
2025,8,21,14:11:44.196,-1.676,219,1.0,-4.4,0.0,-0.06,-0.99,-0.02,1.00000,0.00003,-0.00003,0.00000,0.022,0.0000
2025,8,21,14:11:44.198,-1.674,221,-1.4,6.6,0.0,-0.06,-0.99,-0.03,1.00000,0.00003,0.00007,0.00000,0.022,0.0000
2025,8,21,14:11:44.200,-1.672,223,1.1,-5.0,0.0,-0.06,-1.00,-0.03,1.00000,0.00003,0.00000,0.00000,0.022,0.0000
2025,8,21,14:11:44.202,-1.670,225,-0.7,4.4,0.0,-0.05,-0.98,-0.01,1.00000,0.00003,0.00003,0.00000,0.022,0.0000
2025,8,21,14:11:44.204,-1.668,227,0.7,-4.1,0.0,-0.06,-0.98,-0.02,1.00000,0.00003,0.00000,0.00000,0.022,0.0000
2025,8,21,14:11:44.206,-1.666,229,0.1,1.3,0.1,-0.07,-1.00,-0.01,1.00000,0.00003,0.00000,0.00000,0.022,0.0000
2025,8,21,14:11:44.208,-1.664,231,0.3,-2.1,0.1,-0.06,-1.00,0.00,1.00000,0.00003,0.00000,0.00000,0.022,0.0000
2025,8,21,14:11:44.210,-1.662,233,-0.5,2.9,0.0,-0.06,-1.00,-0.01,1.00000,0.00003,0.00000,0.00000,0.022,0.0000
2025,8,21,14:11:44.212,-1.660,235,-0.3,0.4,0.0,-0.05,-0.99,-0.02,1.00000,0.00003,0.00000,0.00000,0.022,0.0000
2025,8,21,14:11:44.214,-1.658,237,0.0,1.7,0.0,-0.06,-0.98,-0.02,1.00000,0.00003,0.00003,0.00000,0.022,0.0000
2025,8,21,14:11:44.216,-1.656,239,-0.7,3.1,0.0,-0.05,-1.00,-0.02,1.00000,0.00000,0.00010,0.00000,0.022,0.0000
2025,8,21,14:11:44.218,-1.654,241,0.4,-0.6,0.1,-0.05,-1.01,-0.02,1.00000,0.00003,0.00010,0.00000,0.022,0.0000
2025,8,21,14:11:44.220,-1.652,243,0.4,-3.0,0.1,-0.06,-1.00,-0.02,1.00000,0.00003,0.00003,0.00000,0.022,0.0000
2025,8,21,14:11:44.222,-1.650,245,0.9,-3.0,0.0,-0.06,-0.98,-0.03,1.00000,0.00003,0.00000,0.00000,0.022,0.0000
2025,8,21,14:11:44.224,-1.648,247,0.0,-0.6,-0.1,-0.06,-0.99,-0.03,1.00000,0.00003,0.00000,0.00000,0.022,0.0000
2025,8,21,14:11:44.226,-1.646,249,1.2,-4.4,0.1,-0.06,-0.99,-0.02,1.00000,0.00007,-0.00007,0.00000,0.022,0.0000
2025,8,21,14:11:44.228,-1.644,1,-0.5,1.8,0.0,-0.05,-0.98,0.00,1.00000,0.00007,-0.00003,0.00000,0.023,0.0000
2025,8,21,14:11:44.230,-1.642,3,0.9,-4.4,0.0,-0.06,-1.00,-0.02,1.00000,0.00007,-0.00010,0.00000,0.022,0.0000
2025,8,21,14:11:44.232,-1.640,5,-0.8,3.7,0.0,-0.06,-1.00,0.00,1.00000,0.00007,-0.00007,0.00000,0.022,0.0000
2025,8,21,14:11:44.234,-1.638,7,0.7,-1.8,0.1,-0.07,-1.00,-0.02,1.00000,0.00007,-0.00010,0.00000,0.022,0.0000
2025,8,21,14:11:44.236,-1.636,9,-0.8,4.0,0.0,-0.05,-0.99,-0.03,1.00000,0.00007,0.00000,0.00000,0.022,0.0000
2025,8,21,14:11:44.238,-1.634,11,0.9,-3.8,0.0,-0.04,-0.99,-0.01,1.00000,0.00007,-0.00007,0.00000,0.022,0.0000
2025,8,21,14:11:44.240,-1.632,13,-0.5,2.7,0.0,-0.06,-0.99,-0.02,1.00000,0.00007,-0.00003,0.00000,0.023,0.0000
2025,8,21,14:11:44.242,-1.630,15,1.0,-4.5,0.0,-0.06,-0.99,-0.02,1.00000,0.00010,-0.00010,0.00000,0.022,0.0000
2025,8,21,14:11:44.244,-1.628,17,-0.9,4.3,-0.1,-0.05,-1.00,-0.02,1.00000,0.00007,-0.00003,0.00000,0.022,0.0000
2025,8,21,14:11:44.246,-1.626,19,0.6,-3.2,-0.1,-0.06,-0.98,-0.02,1.00000,0.00007,-0.00010,0.00000,0.023,0.0000
2025,8,21,14:11:44.248,-1.624,21,-0.9,4.7,0.0,-0.06,-0.98,-0.01,1.00000,0.00007,0.00000,0.00000,0.022,0.0000
2025,8,21,14:11:44.250,-1.622,23,0.0,-0.9,0.0,-0.05,-1.01,-0.01,1.00000,0.00007,-0.00003,0.00000,0.022,0.0000
2025,8,21,14:11:44.252,-1.620,25,-0.7,3.5,0.0,-0.06,-1.00,-0.01,1.00000,0.00003,0.00000,0.00000,0.024,0.0000
2025,8,21,14:11:44.254,-1.618,27,-0.6,1.7,0.0,-0.06,-0.98,-0.02,1.00000,0.00003,0.00003,0.00000,0.025,0.0000
2025,8,21,14:11:44.256,-1.616,29,0.1,1.1,0.1,-0.07,-1.00,-0.02,1.00000,0.00003,0.00007,0.00000,0.024,0.0000
2025,8,21,14:11:44.258,-1.614,31,0.7,-3.4,0.0,-0.07,-1.00,-0.01,1.00000,0.00007,0.00000,0.00000,0.024,0.0000
2025,8,21,14:11:44.260,-1.612,33,0.7,-1.5,0.0,-0.05,-0.98,-0.01,1.00000,0.00007,0.00000,0.00000,0.023,0.0000
2025,8,21,14:11:44.262,-1.610,35,0.0,-1.1,0.0,-0.04,-0.97,-0.02,1.00000,0.00007,-0.00003,0.00000,0.024,0.0000
2025,8,21,14:11:44.264,-1.608,37,1.0,-3.7,0.1,-0.06,-0.99,-0.01,1.00000,0.00010,-0.00010,0.00000,0.024,0.0000
2025,8,21,14:11:44.266,-1.606,39,-0.4,1.4,0.1,-0.06,-0.99,-0.02,1.00000,0.00007,-0.00007,0.00000,0.025,0.0000
2025,8,21,14:11:44.268,-1.604,41,0.0,1.1,0.0,-0.06,-0.99,-0.02,1.00000,0.00007,-0.00003,0.00000,0.024,0.0000
2025,8,21,14:11:44.270,-1.602,43,-0.9,3.7,0.1,-0.05,-0.99,-0.02,1.00000,0.00007,0.00000,0.00000,0.025,0.0000
2025,8,21,14:11:44.272,-1.600,45,0.6,-1.4,0.0,-0.05,-0.98,-0.01,1.00000,0.00007,0.00000,0.00000,0.024,0.0000
2025,8,21,14:11:44.274,-1.598,47,-0.9,4.4,0.0,-0.06,-1.00,-0.02,1.00000,0.00007,0.00003,0.00000,0.024,0.0000
2025,8,21,14:11:44.276,-1.596,49,1.0,-3.7,0.0,-0.06,-1.01,-0.02,1.00000,0.00007,0.00000,0.00000,0.024,0.0000
2025,8,21,14:11:44.278,-1.594,51,-0.6,3.5,0.0,-0.06,-0.97,-0.02,1.00000,0.00007,0.00003,0.00000,0.025,0.0000
2025,8,21,14:11:44.280,-1.592,53,1.1,-4.6,0.0,-0.06,-0.98,-0.02,1.00000,0.00007,0.00000,0.00000,0.024,0.0000
2025,8,21,14:11:44.282,-1.590,55,-0.9,3.3,0.1,-0.06,-0.99,-0.02,1.00000,0.00007,0.00000,0.00000,0.024,0.0000
2025,8,21,14:11:44.284,-1.588,57,0.7,-3.9,0.0,-0.06,-0.99,-0.02,1.00000,0.00007,-0.00003,0.00000,0.025,0.0000
2025,8,21,14:11:44.286,-1.586,59,-0.9,4.2,0.0,-0.05,-0.99,-0.01,1.00000,0.00007,0.00003,0.00000,0.025,0.0000
2025,8,21,14:11:44.288,-1.584,61,0.2,-1.9,0.1,-0.07,-1.00,-0.01,1.00000,0.00007,0.00000,0.00000,0.024,0.0000
2025,8,21,14:11:44.290,-1.582,63,-0.7,3.2,0.1,-0.06,-1.00,-0.01,1.00000,0.00007,0.00003,0.00000,0.024,0.0000
2025,8,21,14:11:44.292,-1.580,65,1.2,-4.4,0.0,-0.07,-0.98,-0.02,1.00000,0.00007,0.00000,0.00000,0.024,0.0000
2025,8,21,14:11:44.294,-1.578,67,-0.3,2.7,0.0,-0.05,-0.98,-0.02,1.00000,0.00007,0.00000,0.00000,0.024,0.0000
2025,8,21,14:11:44.296,-1.576,69,0.9,-4.1,0.0,-0.06,-0.99,-0.01,1.00000,0.00010,-0.00003,0.00000,0.023,0.0000
2025,8,21,14:11:44.298,-1.574,71,-0.3,2.8,0.0,-0.06,-1.00,-0.01,1.00000,0.00007,0.00000,0.00000,0.022,0.0000
2025,8,21,14:11:44.300,-1.572,73,0.6,-3.3,0.0,-0.06,-0.99,-0.01,1.00000,0.00010,-0.00003,0.00000,0.022,0.0000
2025,8,21,14:11:44.302,-1.570,75,-0.4,2.6,0.0,-0.06,-0.99,-0.01,1.00000,0.00007,0.00000,0.00000,0.022,0.0000
2025,8,21,14:11:44.304,-1.568,77,0.3,-2.3,0.1,-0.06,-0.99,-0.01,1.00000,0.00010,-0.00003,0.00000,0.023,0.0000
2025,8,21,14:11:44.306,-1.566,79,0.3,-1.5,0.0,-0.07,-1.00,-0.02,1.00000,0.00010,-0.00007,0.00000,0.022,0.0000
2025,8,21,14:11:44.308,-1.564,81,0.1,-1.3,0.1,-0.06,-0.99,-0.02,1.00000,0.00010,-0.00007,0.00000,0.022,0.0000
2025,8,21,14:11:44.310,-1.562,83,0.5,-1.8,0.0,-0.06,-0.99,-0.01,1.00000,0.00010,-0.00010,0.00000,0.022,0.0000
2025,8,21,14:11:44.312,-1.560,85,0.0,-0.4,0.0,-0.06,-1.00,0.00,1.00000,0.00010,-0.00013,0.00000,0.022,0.0000
2025,8,21,14:11:44.314,-1.558,87,0.3,-1.8,0.0,-0.06,-0.98,-0.01,1.00000,0.00010,-0.00017,0.00000,0.022,0.0000
2025,8,21,14:11:44.316,-1.556,89,-0.1,1.0,0.0,-0.07,-0.99,-0.01,1.00000,0.00010,-0.00013,0.00000,0.022,0.0000
2025,8,21,14:11:44.318,-1.554,91,0.3,-1.6,0.0,-0.06,-0.99,-0.01,1.00000,0.00010,-0.00017,0.00000,0.022,0.0000
2025,8,21,14:11:44.320,-1.552,93,0.0,0.4,0.0,-0.07,-0.99,-0.01,1.00000,0.00010,-0.00017,0.00000,0.022,0.0000
2025,8,21,14:11:44.322,-1.550,95,0.2,-1.3,0.1,-0.07,-0.98,-0.01,1.00000,0.00013,-0.00017,0.00000,0.022,0.0000
2025,8,21,14:11:44.324,-1.548,97,0.0,0.0,0.0,-0.06,-0.99,-0.01,1.00000,0.00013,-0.00017,0.00000,0.022,0.0000
2025,8,21,14:11:44.326,-1.546,99,0.3,-1.0,0.0,-0.06,-0.99,0.00,1.00000,0.00013,-0.00020,0.00000,0.023,0.0000
2025,8,21,14:11:44.328,-1.544,101,0.1,0.0,-0.1,-0.07,-0.99,-0.01,1.00000,0.00013,-0.00020,0.00000,0.022,0.0000
2025,8,21,14:11:44.330,-1.542,103,-0.2,1.0,0.0,-0.06,-0.99,-0.01,1.00000,0.00013,-0.00017,0.00000,0.023,0.0000
2025,8,21,14:11:44.332,-1.540,105,0.1,-0.2,0.0,-0.06,-0.99,-0.01,1.00000,0.00013,-0.00017,0.00000,0.022,0.0000
2025,8,21,14:11:44.334,-1.538,107,-0.2,0.8,0.0,-0.06,-0.99,-0.01,1.00000,0.00013,-0.00017,0.00000,0.022,0.0000
2025,8,21,14:11:44.336,-1.536,109,0.0,-0.2,0.0,-0.06,-0.99,-0.01,1.00000,0.00013,-0.00017,0.00000,0.023,0.0000
2025,8,21,14:11:44.338,-1.534,111,-0.1,0.7,0.1,-0.06,-1.00,-0.01,1.00000,0.00013,-0.00017,0.00000,0.022,0.0000
2025,8,21,14:11:44.340,-1.532,113,0.0,0.3,0.0,-0.06,-0.98,0.00,1.00000,0.00013,-0.00017,0.00000,0.022,0.0000
2025,8,21,14:11:44.342,-1.530,115,0.0,0.4,0.1,-0.06,-0.99,-0.01,1.00000,0.00013,-0.00013,0.00000,0.022,0.0000
2025,8,21,14:11:44.344,-1.528,117,0.0,0.4,0.1,-0.06,-0.99,0.00,1.00000,0.00013,-0.00013,0.00000,0.022,0.0000
2025,8,21,14:11:44.346,-1.526,119,0.0,0.2,0.0,-0.06,-0.99,-0.01,1.00000,0.00013,-0.00013,0.00000,0.022,0.0000
2025,8,21,14:11:44.348,-1.524,121,0.0,0.4,0.0,-0.06,-0.99,-0.01,1.00000,0.00013,-0.00013,0.00000,0.022,0.0000
2025,8,21,14:11:44.350,-1.522,123,0.0,0.2,0.0,-0.06,-0.99,-0.01,1.00000,0.00013,-0.00013,0.00000,0.022,0.0000
2025,8,21,14:11:44.352,-1.520,125,0.0,0.4,-0.1,-0.05,-0.98,-0.02,1.00000,0.00013,-0.00010,0.00000,0.022,0.0000
2025,8,21,14:11:44.354,-1.518,127,0.0,-0.2,0.0,-0.06,-0.99,-0.02,1.00000,0.00013,-0.00010,0.00000,0.022,0.0000
2025,8,21,14:11:44.356,-1.516,129,0.0,0.4,0.0,-0.06,-0.99,-0.01,1.00000,0.00013,-0.00010,0.00000,0.022,0.0000
2025,8,21,14:11:44.358,-1.514,131,0.0,0.0,0.1,-0.06,-1.00,-0.02,1.00000,0.00013,-0.00010,0.00000,0.022,0.0000
2025,8,21,14:11:44.360,-1.512,133,0.0,0.4,0.0,-0.06,-0.99,-0.02,1.00000,0.00013,-0.00010,0.00000,0.022,0.0000
2025,8,21,14:11:44.362,-1.510,135,0.0,0.1,0.0,-0.05,-0.98,-0.01,1.00000,0.00013,-0.00010,0.00000,0.023,0.0000
2025,8,21,14:11:44.364,-1.508,137,0.1,-0.2,0.1,-0.06,-1.00,-0.01,1.00000,0.00013,-0.00010,0.00000,0.022,0.0000
2025,8,21,14:11:44.366,-1.506,139,0.0,0.0,0.0,-0.05,-0.99,-0.01,1.00000,0.00013,-0.00010,0.00000,0.022,0.0000
2025,8,21,14:11:44.368,-1.504,141,0.0,-0.2,0.0,-0.06,-0.99,-0.01,1.00000,0.00013,-0.00010,0.00000,0.022,0.0000
2025,8,21,14:11:44.370,-1.502,143,0.0,0.0,0.0,-0.06,-0.99,-0.01,1.00000,0.00013,-0.00010,0.00000,0.022,0.0000
2025,8,21,14:11:44.372,-1.500,145,0.1,-0.1,0.0,-0.06,-1.00,-0.01,1.00000,0.00013,-0.00010,0.00000,0.022,0.0000
2025,8,21,14:11:44.374,-1.498,147,0.0,0.0,0.1,-0.06,-0.99,-0.01,1.00000,0.00013,-0.00010,0.00000,0.022,0.0000
2025,8,21,14:11:44.376,-1.496,149,0.0,0.0,0.0,-0.07,-0.99,-0.02,1.00000,0.00013,-0.00010,0.00000,0.022,0.0000
2025,8,21,14:11:44.378,-1.494,151,0.0,0.0,-0.1,-0.06,-0.99,-0.01,1.00000,0.00013,-0.00010,0.00000,0.022,0.0000
2025,8,21,14:11:44.380,-1.492,153,0.0,-0.1,0.1,-0.06,-1.00,-0.01,1.00000,0.00013,-0.00010,0.00000,0.022,0.0000
2025,8,21,14:11:44.382,-1.490,155,-0.1,0.0,0.1,-0.05,-0.99,-0.01,1.00000,0.00013,-0.00010,0.00000,0.022,0.0000
2025,8,21,14:11:44.384,-1.488,157,0.0,0.0,0.0,-0.06,-1.00,-0.01,1.00000,0.00013,-0.00010,0.00000,0.022,0.0000
2025,8,21,14:11:44.386,-1.486,159,0.0,-0.1,0.0,-0.06,-0.99,-0.01,1.00000,0.00013,-0.00010,0.00000,0.022,0.0000
2025,8,21,14:11:44.388,-1.484,161,0.0,0.0,0.0,-0.06,-1.00,-0.02,1.00000,0.00010,-0.00010,0.00000,0.023,0.0000
2025,8,21,14:11:44.390,-1.482,163,-0.1,0.0,0.0,-0.07,-1.00,-0.01,1.00000,0.00010,-0.00010,0.00000,0.023,0.0000
2025,8,21,14:11:44.392,-1.480,165,0.0,0.1,0.0,-0.06,-0.99,-0.01,1.00000,0.00010,-0.00010,0.00000,0.023,0.0000
2025,8,21,14:11:44.394,-1.478,167,0.0,0.0,0.0,-0.06,-0.99,-0.02,1.00000,0.00010,-0.00010,0.00000,0.022,0.0000
2025,8,21,14:11:44.396,-1.476,169,0.0,0.0,0.0,-0.06,-0.99,-0.01,1.00000,0.00010,-0.00010,0.00000,0.022,0.0000
2025,8,21,14:11:44.398,-1.474,171,0.0,-0.1,0.0,-0.06,-0.98,-0.01,1.00000,0.00010,-0.00010,0.00000,0.022,0.0000
2025,8,21,14:11:44.400,-1.472,173,0.0,0.0,0.0,-0.06,-0.99,-0.01,1.00000,0.00010,-0.00010,0.00000,0.022,0.0000
2025,8,21,14:11:44.402,-1.470,175,0.0,0.0,0.0,-0.07,-0.99,-0.02,1.00000,0.00010,-0.00010,0.00000,0.023,0.0000
2025,8,21,14:11:44.404,-1.468,177,0.0,0.0,0.0,-0.06,-0.99,-0.01,1.00000,0.00010,-0.00010,0.00000,0.025,0.0000
2025,8,21,14:11:44.406,-1.466,179,0.0,0.2,0.1,-0.07,-1.00,-0.01,1.00000,0.00010,-0.00010,0.00000,0.024,0.0000
2025,8,21,14:11:44.408,-1.464,181,0.0,0.0,0.1,-0.06,-0.99,-0.01,1.00000,0.00010,-0.00010,0.00000,0.024,0.0000
2025,8,21,14:11:44.410,-1.462,183,-0.1,0.0,0.1,-0.07,-1.00,-0.02,1.00000,0.00010,-0.00010,0.00000,0.024,0.0000
2025,8,21,14:11:44.412,-1.460,185,0.0,0.0,0.0,-0.06,-0.99,-0.01,1.00000,0.00010,-0.00010,0.00000,0.022,0.0000
2025,8,21,14:11:44.414,-1.458,187,0.0,0.0,0.0,-0.06,-0.99,-0.02,1.00000,0.00010,-0.00010,0.00000,0.022,0.0000
2025,8,21,14:11:44.416,-1.456,189,0.0,0.0,0.1,-0.06,-1.00,-0.02,1.00000,0.00010,-0.00010,0.00000,0.022,0.0000
2025,8,21,14:11:44.418,-1.454,191,0.1,0.0,0.0,-0.06,-0.99,-0.02,1.00000,0.00010,-0.00010,0.00000,0.023,0.0000
2025,8,21,14:11:44.420,-1.452,193,0.0,0.1,0.0,-0.06,-0.99,-0.01,1.00000,0.00010,-0.00010,0.00000,0.022,0.0000
2025,8,21,14:11:44.422,-1.450,195,0.0,0.2,-0.1,-0.06,-1.01,-0.02,1.00000,0.00010,-0.00010,0.00000,0.023,0.0000
2025,8,21,14:11:44.424,-1.448,197,-0.1,0.2,-0.1,-0.05,-0.99,-0.01,1.00000,0.00010,-0.00010,0.00000,0.023,0.0000
2025,8,21,14:11:44.426,-1.446,199,-0.4,2.5,-0.2,-0.05,-0.99,-0.02,1.00000,0.00010,-0.00003,0.00000,0.022,0.0000
2025,8,21,14:11:44.428,-1.444,201,-0.2,0.3,0.1,-0.06,-1.00,-0.01,1.00000,0.00010,-0.00003,0.00000,0.022,0.0000
2025,8,21,14:11:44.430,-1.442,203,-1.0,4.4,0.0,-0.06,-0.99,-0.01,1.00000,0.00007,0.00000,0.00000,0.022,0.0000
2025,8,21,14:11:44.432,-1.440,205,-0.5,1.4,0.0,-0.05,-0.99,-0.01,1.00000,0.00007,0.00003,0.00000,0.022,0.0000
2025,8,21,14:11:44.434,-1.438,207,-0.7,4.5,0.0,-0.06,-0.99,-0.02,1.00000,0.00007,0.00010,0.00000,0.023,0.0000
2025,8,21,14:11:44.436,-1.436,209,1.5,-7.2,0.0,-0.06,-0.98,-0.01,1.00000,0.00007,0.00000,0.00000,0.022,0.0000
2025,8,21,14:11:44.438,-1.434,211,-0.2,2.8,0.0,-0.06,-1.00,-0.01,1.00000,0.00007,0.00003,0.00000,0.022,0.0000
2025,8,21,14:11:44.440,-1.432,213,1.1,-5.6,0.0,-0.05,-1.01,-0.01,1.00000,0.00010,-0.00003,0.00000,0.022,0.0000
2025,8,21,14:11:44.442,-1.430,215,0.1,0.3,-0.1,-0.05,-0.98,-0.02,1.00000,0.00010,-0.00003,0.00000,0.022,0.0000
2025,8,21,14:11:44.444,-1.428,217,0.3,-3.0,0.0,-0.06,-0.98,-0.02,1.00000,0.00010,-0.00007,0.00000,0.022,0.0000
2025,8,21,14:11:44.446,-1.426,219,-0.5,3.0,-0.1,-0.07,-1.00,-0.03,1.00000,0.00010,-0.00003,0.00000,0.022,0.0000
2025,8,21,14:11:44.448,-1.424,221,-0.2,0.2,0.0,-0.05,-0.99,-0.02,1.00000,0.00010,-0.00003,0.00000,0.022,0.0000
2025,8,21,14:11:44.450,-1.422,223,0.1,0.6,0.0,-0.06,-0.98,-0.01,1.00000,0.00010,0.00000,0.00000,0.022,0.0000
2025,8,21,14:11:44.452,-1.420,225,-0.8,3.0,0.0,-0.06,-1.00,-0.01,1.00000,0.00007,0.00000,0.00000,0.022,0.0000
2025,8,21,14:11:44.454,-1.418,227,0.7,-2.3,0.0,-0.07,-1.00,-0.02,1.00000,0.00010,0.00000,0.00000,0.022,0.0000
2025,8,21,14:11:44.456,-1.416,229,-0.9,4.3,0.1,-0.05,-0.99,-0.02,1.00000,0.00007,0.00003,0.00000,0.022,0.0000
2025,8,21,14:11:44.458,-1.414,231,1.2,-4.8,0.0,-0.04,-0.99,-0.02,1.00000,0.00010,0.00000,0.00000,0.022,0.0000
2025,8,21,14:11:44.460,-1.412,233,-0.6,1.3,0.0,-0.06,-0.98,-0.02,1.00000,0.00010,0.00000,0.00000,0.022,0.0000
2025,8,21,14:11:44.462,-1.410,235,1.3,-5.5,0.0,-0.06,-1.00,-0.02,1.00000,0.00010,-0.00007,0.00000,0.022,0.0000
2025,8,21,14:11:44.464,-1.408,237,-0.9,3.4,0.0,-0.06,-1.00,-0.01,1.00000,0.00010,-0.00003,0.00000,0.022,0.0000
2025,8,21,14:11:44.466,-1.406,239,0.9,-4.9,0.0,-0.06,-0.98,-0.02,1.00000,0.00010,-0.00010,0.00000,0.022,0.0000
2025,8,21,14:11:44.468,-1.404,241,-0.9,4.3,0.0,-0.07,-0.97,-0.02,1.00000,0.00010,-0.00003,0.00000,0.022,0.0000
2025,8,21,14:11:44.470,-1.402,243,0.8,-2.7,-0.1,-0.05,-0.99,-0.01,1.00000,0.00010,-0.00007,0.00000,0.022,0.0000
2025,8,21,14:11:44.472,-1.400,245,-0.7,3.8,-0.1,-0.06,-1.00,-0.01,1.00000,0.00010,0.00000,0.00000,0.022,0.0000
2025,8,21,14:11:44.474,-1.398,247,0.8,-4.0,0.0,-0.06,-0.99,-0.01,1.00000,0.00010,-0.00010,0.00000,0.022,0.0000
2025,8,21,14:11:44.476,-1.396,249,-0.2,1.8,0.0,-0.07,-1.00,-0.02,1.00000,0.00010,-0.00007,0.00000,0.022,0.0000
2025,8,21,14:11:44.478,-1.394,1,0.6,-3.7,0.1,-0.06,-1.00,-0.02,1.00000,0.00010,-0.00013,0.00000,0.023,0.0000
2025,8,21,14:11:44.480,-1.392,3,0.4,-1.0,0.0,-0.05,-0.98,-0.01,1.00000,0.00013,-0.00013,0.00000,0.022,0.0000
2025,8,21,14:11:44.482,-1.390,5,0.1,-1.8,-0.1,-0.05,-0.98,-0.01,1.00000,0.00013,-0.00017,0.00000,0.022,0.0000
2025,8,21,14:11:44.484,-1.388,7,-0.9,3.9,0.0,-0.05,-0.99,-0.02,1.00000,0.00010,-0.00010,0.00000,0.022,0.0000
2025,8,21,14:11:44.486,-1.386,9,-0.5,0.6,0.0,-0.07,-0.99,-0.01,1.00000,0.00010,-0.00010,0.00000,0.022,0.0000
2025,8,21,14:11:44.488,-1.384,11,-0.3,2.3,0.0,-0.07,-0.99,-0.01,1.00000,0.00010,-0.00003,0.00000,0.022,0.0000
2025,8,21,14:11:44.490,-1.382,13,-0.8,3.0,-0.1,-0.05,-0.99,-0.01,1.00000,0.00007,0.00000,0.00000,0.022,0.0000
2025,8,21,14:11:44.492,-1.380,15,0.1,-0.2,0.0,-0.06,-0.99,-0.01,1.00000,0.00007,0.00000,0.00000,0.022,0.0000
2025,8,21,14:11:44.494,-1.378,17,0.4,-2.6,-0.1,-0.06,-0.97,-0.01,1.00000,0.00010,-0.00003,0.00000,0.022,0.0000
2025,8,21,14:11:44.496,-1.376,19,0.8,-2.7,0.0,-0.05,-1.01,-0.01,1.00000,0.00010,-0.00010,0.00000,0.022,0.0000
2025,8,21,14:11:44.498,-1.374,21,-0.2,0.0,0.0,-0.05,-1.00,0.00,1.00000,0.00010,-0.00010,0.00000,0.022,0.0000
2025,8,21,14:11:44.500,-1.372,23,1.0,-4.1,0.0,-0.07,-0.98,-0.02,1.00000,0.00010,-0.00017,0.00000,0.022,0.0000
2025,8,21,14:11:44.502,-1.370,25,-0.7,2.5,-0.1,-0.06,-0.99,-0.02,1.00000,0.00010,-0.00013,0.00000,0.022,0.0000
2025,8,21,14:11:44.504,-1.368,27,0.8,-4.1,-0.1,-0.05,-0.99,0.00,1.00000,0.00013,-0.00020,0.00000,0.022,0.0000
2025,8,21,14:11:44.506,-1.366,29,-1.1,4.2,0.0,-0.06,-0.98,-0.01,1.00000,0.00010,-0.00013,0.00000,0.022,0.0000
2025,8,21,14:11:44.508,-1.364,31,0.6,-2.5,0.1,-0.05,-0.98,-0.02,1.00000,0.00010,-0.00017,0.00000,0.022,0.0000
2025,8,21,14:11:44.510,-1.362,33,-0.9,4.2,0.0,-0.06,-1.00,-0.02,1.00000,0.00010,-0.00010,0.00000,0.022,0.0000
2025,8,21,14:11:44.512,-1.360,35,0.9,-4.2,0.1,-0.07,-1.00,-0.01,1.00000,0.00010,-0.00017,0.00000,0.022,0.0000
2025,8,21,14:11:44.514,-1.358,37,-0.4,3.0,0.0,-0.05,-0.99,-0.02,1.00000,0.00010,-0.00010,0.00000,0.022,0.0000
2025,8,21,14:11:44.516,-1.356,39,0.8,-4.2,0.0,-0.05,-0.98,-0.01,1.00000,0.00013,-0.00020,0.00000,0.022,0.0000
2025,8,21,14:11:44.518,-1.354,41,-1.0,4.2,0.0,-0.06,-0.99,-0.01,1.00000,0.00010,-0.00010,0.00000,0.022,0.0000
2025,8,21,14:11:44.520,-1.352,43,0.4,-2.8,0.0,-0.06,-1.01,-0.01,1.00000,0.00010,-0.00017,0.00000,0.022,0.0000
2025,8,21,14:11:44.522,-1.350,45,-0.9,4.3,0.0,-0.06,-1.00,-0.01,1.00000,0.00010,-0.00010,0.00000,0.022,0.0000
2025,8,21,14:11:44.524,-1.348,47,-0.2,-0.3,-0.1,-0.06,-0.98,-0.01,1.00000,0.00010,-0.00010,0.00000,0.022,0.0000
2025,8,21,14:11:44.526,-1.346,49,-0.3,3.0,0.0,-0.06,-0.98,-0.01,1.00000,0.00007,-0.00003,0.00000,0.022,0.0000
2025,8,21,14:11:44.528,-1.344,51,-0.7,2.3,0.0,-0.06,-1.01,-0.01,1.00000,0.00007,0.00000,0.00000,0.022,0.0000
2025,8,21,14:11:44.530,-1.342,53,0.1,0.6,0.1,-0.06,-1.01,-0.01,1.00000,0.00007,0.00000,0.00000,0.023,0.0000
2025,8,21,14:11:44.532,-1.340,55,0.3,-3.2,0.1,-0.05,-1.00,-0.01,1.00000,0.00007,-0.00003,0.00000,0.022,0.0000
2025,8,21,14:11:44.534,-1.338,57,0.4,-1.1,0.0,-0.06,-1.00,0.00,1.00000,0.00007,-0.00007,0.00000,0.023,0.0000
2025,8,21,14:11:44.536,-1.336,59,0.4,-3.1,-0.1,-0.06,-0.99,-0.01,1.00000,0.00010,-0.00013,0.00000,0.022,0.0000
2025,8,21,14:11:44.538,-1.334,61,0.2,0.0,0.0,-0.06,-1.00,-0.01,1.00000,0.00010,-0.00013,0.00000,0.022,0.0000
2025,8,21,14:11:44.540,-1.332,63,0.5,-3.2,0.0,-0.06,-0.99,-0.01,1.00000,0.00010,-0.00017,0.00000,0.022,0.0000
2025,8,21,14:11:44.542,-1.330,65,-0.3,2.3,0.1,-0.06,-0.99,-0.02,1.00000,0.00010,-0.00013,0.00000,0.023,0.0000
2025,8,21,14:11:44.544,-1.328,67,0.4,-2.7,0.0,-0.07,-1.00,-0.01,1.00000,0.00010,-0.00020,0.00000,0.023,0.0000
2025,8,21,14:11:44.546,-1.326,69,-0.2,1.2,0.0,-0.07,-1.00,-0.01,1.00000,0.00010,-0.00017,0.00000,0.022,0.0000
2025,8,21,14:11:44.548,-1.324,71,0.3,-2.3,0.0,-0.06,-0.98,-0.01,1.00000,0.00010,-0.00020,0.00000,0.022,0.0000
2025,8,21,14:11:44.550,-1.322,73,0.0,0.3,0.0,-0.06,-0.99,-0.02,1.00000,0.00010,-0.00020,0.00000,0.022,0.0000
2025,8,21,14:11:44.552,-1.320,75,0.1,-1.6,0.0,-0.06,-0.99,-0.02,1.00000,0.00010,-0.00023,0.00000,0.022,0.0000
2025,8,21,14:11:44.554,-1.318,77,0.1,-0.2,0.0,-0.06,-0.98,-0.02,1.00000,0.00010,-0.00023,0.00000,0.022,0.0000
2025,8,21,14:11:44.556,-1.316,79,-0.4,1.9,0.0,-0.07,-0.99,-0.01,1.00000,0.00010,-0.00020,0.00000,0.022,0.0000
2025,8,21,14:11:44.558,-1.314,81,0.2,-0.6,0.0,-0.06,-0.98,-0.01,1.00000,0.00010,-0.00020,0.00000,0.023,0.0000
2025,8,21,14:11:44.560,-1.312,83,-0.2,1.6,0.0,-0.06,-0.99,-0.02,1.00000,0.00000,0.00000,0.00000,0.022,0.0000
2025,8,21,14:11:44.562,-1.310,85,0.1,-0.9,0.0,-0.06,-0.99,-0.02,1.00000,0.00000,0.00000,0.00000,0.022,0.0000
2025,8,21,14:11:44.564,-1.308,87,-0.3,1.1,0.1,-0.07,-1.00,-0.02,1.00000,0.00000,0.00000,0.00000,0.022,0.0000
2025,8,21,14:11:44.566,-1.306,89,-0.1,0.3,0.0,-0.06,-1.00,-0.02,1.00000,0.00000,0.00003,0.00000,0.022,0.0000
2025,8,21,14:11:44.568,-1.304,91,-0.3,0.7,-0.1,-0.06,-0.99,-0.02,1.00000,0.00000,0.00003,0.00000,0.022,0.0000
2025,8,21,14:11:44.570,-1.302,93,0.0,0.4,0.0,-0.06,-0.99,-0.02,1.00000,0.00000,0.00003,0.00000,0.022,0.0000
2025,8,21,14:11:44.572,-1.300,95,0.0,0.4,-0.1,-0.06,-1.00,-0.02,1.00000,0.00000,0.00007,0.00000,0.022,0.0000
2025,8,21,14:11:44.574,-1.298,97,-0.1,0.7,0.0,-0.06,-0.98,-0.01,1.00000,0.00000,0.00007,0.00000,0.022,0.0000
2025,8,21,14:11:44.576,-1.296,99,-0.1,0.0,0.0,-0.07,-1.00,-0.02,1.00000,0.00000,0.00007,0.00000,0.022,0.0000
2025,8,21,14:11:44.578,-1.294,101,0.0,0.7,0.0,-0.06,-0.99,-0.01,1.00000,0.00000,0.00007,0.00000,0.022,0.0000
2025,8,21,14:11:44.580,-1.292,103,0.0,-0.2,-0.1,-0.05,-1.00,-0.01,1.00000,0.00000,0.00007,0.00000,0.022,0.0000
2025,8,21,14:11:44.582,-1.290,105,-0.1,0.5,0.0,-0.06,-1.00,-0.02,1.00000,0.00000,0.00007,0.00000,0.022,0.0000
2025,8,21,14:11:44.584,-1.288,107,0.0,-0.2,0.0,-0.06,-0.99,-0.01,1.00000,0.00000,0.00007,0.00000,0.022,0.0000
2025,8,21,14:11:44.586,-1.286,109,-0.1,0.4,0.0,-0.05,-0.99,-0.02,1.00000,0.00000,0.00010,0.00000,0.022,0.0000
2025,8,21,14:11:44.588,-1.284,111,0.0,0.0,0.0,-0.06,-1.00,-0.02,1.00000,0.00000,0.00010,0.00000,0.022,0.0000
2025,8,21,14:11:44.590,-1.282,113,0.0,-0.4,0.0,-0.06,-0.99,-0.02,1.00000,0.00000,0.00007,0.00000,0.022,0.0000
2025,8,21,14:11:44.592,-1.280,115,-0.1,0.0,0.0,-0.06,-0.99,-0.02,1.00000,0.00000,0.00007,0.00000,0.022,0.0000
2025,8,21,14:11:44.594,-1.278,117,0.0,-0.2,0.0,-0.06,-0.99,-0.02,1.00000,0.00000,0.00007,0.00000,0.022,0.0000
2025,8,21,14:11:44.596,-1.276,119,-0.1,0.1,0.0,-0.07,-1.00,-0.01,1.00000,-0.00003,0.00007,0.00000,0.022,0.0000
2025,8,21,14:11:44.598,-1.274,121,0.0,-0.2,0.1,-0.06,-0.99,-0.02,1.00000,0.00000,0.00007,0.00000,0.022,0.0000
2025,8,21,14:11:44.600,-1.272,123,0.0,0.1,0.1,-0.06,-0.99,-0.02,1.00000,0.00000,0.00007,0.00000,0.023,0.0000
2025,8,21,14:11:44.602,-1.270,125,0.0,-0.2,0.0,-0.07,-0.99,-0.01,1.00000,0.00000,0.00007,0.00000,0.022,0.0000
2025,8,21,14:11:44.604,-1.268,127,0.0,0.0,0.0,-0.06,-1.00,-0.02,1.00000,0.00000,0.00007,0.00000,0.022,0.0000
2025,8,21,14:11:44.606,-1.266,129,0.0,-0.1,0.0,-0.05,-1.00,-0.02,1.00000,0.00000,0.00007,0.00000,0.022,0.0000
2025,8,21,14:11:44.608,-1.264,131,0.0,-0.1,0.0,-0.06,-0.99,-0.01,1.00000,0.00000,0.00007,0.00000,0.023,0.0000
2025,8,21,14:11:44.610,-1.262,133,0.0,0.0,0.0,-0.06,-1.00,-0.01,1.00000,0.00000,0.00007,0.00000,0.022,0.0000
2025,8,21,14:11:44.612,-1.260,135,0.0,0.0,0.0,-0.05,-0.99,-0.01,1.00000,0.00000,0.00007,0.00000,0.022,0.0000
2025,8,21,14:11:44.614,-1.258,137,0.0,0.0,0.0,-0.06,-0.99,-0.02,1.00000,0.00000,0.00007,0.00000,0.022,0.0000
2025,8,21,14:11:44.616,-1.256,139,0.0,0.0,0.0,-0.06,-1.00,-0.02,1.00000,0.00000,0.00007,0.00000,0.023,0.0000
2025,8,21,14:11:44.618,-1.254,141,0.0,0.0,-0.1,-0.06,-0.99,-0.01,1.00000,0.00000,0.00007,0.00000,0.022,0.0000
2025,8,21,14:11:44.620,-1.252,143,0.0,0.0,0.0,-0.06,-1.00,-0.02,1.00000,0.00000,0.00007,0.00000,0.022,0.0000
2025,8,21,14:11:44.622,-1.250,145,0.0,0.0,-0.2,-0.06,-0.99,-0.01,1.00000,0.00000,0.00007,0.00000,0.023,0.0000
2025,8,21,14:11:44.624,-1.248,147,0.0,-0.1,0.0,-0.07,-0.99,-0.02,1.00000,0.00000,0.00007,0.00000,0.023,0.0000
2025,8,21,14:11:44.626,-1.246,149,0.0,0.0,0.0,-0.06,-0.99,-0.01,1.00000,0.00000,0.00007,0.00000,0.023,0.0000
2025,8,21,14:11:44.628,-1.244,151,0.0,0.0,-0.1,-0.06,-0.99,-0.02,1.00000,0.00000,0.00007,0.00000,0.022,0.0000
2025,8,21,14:11:44.630,-1.242,153,0.1,-0.1,0.0,-0.06,-0.99,-0.01,1.00000,0.00000,0.00007,0.00000,0.022,0.0000
2025,8,21,14:11:44.632,-1.240,155,0.0,0.0,0.0,-0.06,-0.98,-0.01,1.00000,0.00000,0.00007,0.00000,0.022,0.0000
2025,8,21,14:11:44.634,-1.238,157,0.0,0.0,0.0,-0.06,-0.99,-0.02,1.00000,0.00000,0.00007,0.00000,0.022,0.0000
2025,8,21,14:11:44.636,-1.236,159,0.0,0.0,-0.1,-0.06,-0.99,-0.02,1.00000,-0.00003,0.00007,0.00000,0.022,0.0000
2025,8,21,14:11:44.638,-1.234,161,0.0,0.0,0.0,-0.06,-0.99,-0.02,1.00000,-0.00003,0.00007,0.00000,0.022,0.0000
2025,8,21,14:11:44.640,-1.232,163,0.0,0.0,0.0,-0.06,-0.99,-0.02,1.00000,-0.00003,0.00007,0.00000,0.022,0.0000
2025,8,21,14:11:44.642,-1.230,165,0.0,0.0,0.0,-0.07,-0.99,-0.01,1.00000,-0.00003,0.00007,0.00000,0.023,0.0000
2025,8,21,14:11:44.644,-1.228,167,0.0,0.0,0.0,-0.06,-0.99,-0.01,1.00000,-0.00003,0.00007,0.00000,0.023,0.0000
2025,8,21,14:11:44.646,-1.226,169,0.0,0.0,0.1,-0.06,-0.99,-0.01,1.00000,-0.00003,0.00007,0.00000,0.022,0.0000
2025,8,21,14:11:44.648,-1.224,171,0.0,0.0,0.0,-0.06,-1.00,-0.02,1.00000,-0.00003,0.00003,0.00000,0.022,0.0000
2025,8,21,14:11:44.650,-1.222,173,0.0,0.0,0.1,-0.06,-0.99,-0.01,1.00000,-0.00003,0.00003,0.00000,0.022,0.0000
2025,8,21,14:11:44.652,-1.220,175,0.0,0.0,0.0,-0.05,-1.00,-0.01,1.00000,-0.00003,0.00003,0.00000,0.022,0.0000
2025,8,21,14:11:44.654,-1.218,177,0.1,0.0,0.0,-0.06,-1.00,0.00,1.00000,0.00000,0.00003,0.00000,0.022,0.0000
2025,8,21,14:11:44.656,-1.216,179,0.0,0.0,0.0,-0.06,-0.99,-0.01,1.00000,0.00000,0.00003,0.00000,0.022,0.0000
2025,8,21,14:11:44.658,-1.214,181,0.0,0.0,0.0,-0.07,-0.99,-0.01,1.00000,0.00000,0.00003,0.00000,0.022,0.0000
2025,8,21,14:11:44.660,-1.212,183,-0.1,0.0,0.0,-0.06,-1.00,-0.01,1.00000,-0.00003,0.00003,0.00000,0.022,0.0000
2025,8,21,14:11:44.662,-1.210,185,0.0,-0.1,0.1,-0.07,-1.00,-0.02,1.00000,-0.00003,0.00003,0.00000,0.022,0.0000
2025,8,21,14:11:44.664,-1.208,187,0.0,0.0,0.0,-0.06,-1.00,-0.01,1.00000,-0.00003,0.00003,0.00000,0.022,0.0000
2025,8,21,14:11:44.666,-1.206,189,0.0,0.0,0.0,-0.06,-1.00,-0.01,1.00000,-0.00003,0.00003,0.00000,0.022,0.0000
2025,8,21,14:11:44.668,-1.204,191,0.0,0.0,0.0,-0.07,-1.00,-0.02,1.00000,-0.00003,0.00003,0.00000,0.022,0.0000
2025,8,21,14:11:44.670,-1.202,193,0.0,0.0,-0.1,-0.06,-0.99,-0.01,1.00000,-0.00003,0.00003,0.00000,0.023,0.0000
2025,8,21,14:11:44.672,-1.200,195,0.0,0.0,-0.1,-0.05,-0.99,-0.02,1.00000,-0.00003,0.00003,0.00000,0.023,0.0000
2025,8,21,14:11:44.674,-1.198,197,0.1,0.0,0.0,-0.06,-0.99,-0.01,1.00000,-0.00003,0.00003,0.00000,0.022,0.0000
2025,8,21,14:11:44.676,-1.196,199,0.0,0.0,0.0,-0.06,-0.99,-0.01,1.00000,-0.00003,0.00003,0.00000,0.022,0.0000
2025,8,21,14:11:44.678,-1.194,201,0.0,0.0,0.1,-0.06,-1.00,-0.01,1.00000,-0.00003,0.00003,0.00000,0.022,0.0000
2025,8,21,14:11:44.680,-1.192,203,0.0,-0.1,0.0,-0.06,-0.99,-0.01,1.00000,-0.00003,0.00003,0.00000,0.022,0.0000
2025,8,21,14:11:44.682,-1.190,205,0.0,0.0,0.1,-0.05,-1.00,-0.02,1.00000,-0.00003,0.00003,0.00000,0.023,0.0000
2025,8,21,14:11:44.684,-1.188,207,0.1,0.0,0.0,-0.06,-1.00,-0.02,1.00000,-0.00003,0.00003,0.00000,0.022,0.0000
2025,8,21,14:11:44.686,-1.186,209,0.0,0.0,0.0,-0.06,-1.00,0.00,1.00000,-0.00003,0.00003,0.00000,0.022,0.0000
2025,8,21,14:11:44.688,-1.184,211,0.0,-0.1,0.0,-0.06,-1.00,-0.01,1.00000,-0.00003,0.00003,0.00000,0.022,0.0000
2025,8,21,14:11:44.690,-1.182,213,0.0,0.0,0.0,-0.06,-0.99,-0.01,1.00000,-0.00003,0.00003,0.00000,0.022,0.0000
2025,8,21,14:11:44.692,-1.180,215,0.1,0.0,0.0,-0.06,-1.00,-0.02,1.00000,0.00000,0.00003,0.00000,0.022,0.0000
2025,8,21,14:11:44.694,-1.178,217,0.0,0.0,0.1,-0.06,-1.00,-0.01,1.00000,0.00000,0.00003,0.00000,0.023,0.0000
2025,8,21,14:11:44.696,-1.176,219,0.0,0.0,0.0,-0.06,-0.99,-0.01,1.00000,0.00000,0.00003,0.00000,0.022,0.0000
2025,8,21,14:11:44.698,-1.174,221,0.0,0.0,0.0,-0.06,-1.00,-0.01,1.00000,0.00000,0.00003,0.00000,0.022,0.0000
2025,8,21,14:11:44.700,-1.172,223,0.0,0.0,0.1,-0.06,-1.00,-0.01,1.00000,0.00000,0.00003,0.00000,0.022,0.0000
2025,8,21,14:11:44.702,-1.170,225,0.0,0.0,0.0,-0.06,-0.99,-0.01,1.00000,-0.00003,0.00003,0.00000,0.022,0.0000
2025,8,21,14:11:44.704,-1.168,227,0.0,0.2,0.0,-0.06,-1.00,-0.01,1.00000,-0.00003,0.00003,0.00000,0.022,0.0000
2025,8,21,14:11:44.706,-1.166,229,-0.1,0.0,0.0,-0.07,-0.99,-0.01,1.00000,-0.00003,0.00003,0.00000,0.023,0.0000
2025,8,21,14:11:44.708,-1.164,231,0.0,0.0,0.1,-0.05,-0.99,-0.01,1.00000,-0.00003,0.00003,0.00000,0.022,0.0000
2025,8,21,14:11:44.710,-1.162,233,0.0,0.1,-0.1,-0.06,-0.99,-0.02,1.00000,-0.00003,0.00007,0.00000,0.022,0.0000
2025,8,21,14:11:44.712,-1.160,235,0.0,0.0,0.0,-0.05,-0.99,-0.02,1.00000,-0.00003,0.00007,0.00000,0.022,0.0000
2025,8,21,14:11:44.714,-1.158,237,0.0,0.0,0.0,-0.06,-0.99,-0.01,1.00000,-0.00003,0.00007,0.00000,0.022,0.0000
2025,8,21,14:11:44.716,-1.156,239,0.0,0.0,0.0,-0.06,-0.99,-0.01,1.00000,-0.00003,0.00007,0.00000,0.022,0.0000
2025,8,21,14:11:44.718,-1.154,241,0.0,0.0,0.0,-0.05,-0.99,-0.01,1.00000,-0.00003,0.00007,0.00000,0.022,0.0000
2025,8,21,14:11:44.720,-1.152,243,0.0,0.1,0.1,-0.07,-0.99,-0.01,1.00000,-0.00003,0.00007,0.00000,0.022,0.0000
2025,8,21,14:11:44.722,-1.150,245,0.0,0.0,0.0,-0.07,-0.99,-0.01,1.00000,-0.00003,0.00007,0.00000,0.022,0.0000
2025,8,21,14:11:44.724,-1.148,247,0.0,0.0,0.0,-0.06,-0.99,-0.01,1.00000,-0.00003,0.00007,0.00000,0.023,0.0000
2025,8,21,14:11:44.726,-1.146,249,0.0,0.0,0.0,-0.06,-1.00,-0.02,1.00000,-0.00003,0.00007,0.00000,0.022,0.0000
2025,8,21,14:11:44.728,-1.144,1,0.0,0.0,-0.1,-0.06,-0.99,-0.01,1.00000,-0.00003,0.00007,0.00000,0.023,0.0000
2025,8,21,14:11:44.730,-1.142,3,0.0,0.0,0.0,-0.06,-0.99,-0.02,1.00000,-0.00003,0.00007,0.00000,0.022,0.0000
2025,8,21,14:11:44.732,-1.140,5,0.0,-0.1,0.0,-0.06,-0.99,-0.01,1.00000,-0.00003,0.00007,0.00000,0.022,0.0000
2025,8,21,14:11:44.734,-1.138,7,0.0,0.1,0.0,-0.06,-0.99,-0.02,1.00000,-0.00003,0.00007,0.00000,0.022,0.0000
2025,8,21,14:11:44.736,-1.136,9,0.0,0.1,0.0,-0.06,-0.99,-0.02,1.00000,-0.00003,0.00007,0.00000,0.022,0.0000
2025,8,21,14:11:44.738,-1.134,11,0.0,0.1,0.0,-0.06,-1.00,-0.02,1.00000,-0.00003,0.00007,0.00000,0.022,0.0000
2025,8,21,14:11:44.740,-1.132,13,0.0,-0.1,0.0,-0.06,-1.00,-0.02,1.00000,-0.00003,0.00007,0.00000,0.022,0.0000
2025,8,21,14:11:44.742,-1.130,15,0.0,0.0,0.0,-0.06,-0.99,-0.02,1.00000,-0.00003,0.00007,0.00000,0.022,0.0000
2025,8,21,14:11:44.744,-1.128,17,0.0,0.0,0.1,-0.06,-0.99,-0.01,1.00000,-0.00003,0.00007,0.00000,0.022,0.0000
2025,8,21,14:11:44.746,-1.126,19,0.0,0.0,0.0,-0.07,-0.99,-0.01,1.00000,-0.00003,0.00007,0.00000,0.022,0.0000
2025,8,21,14:11:44.748,-1.124,21,0.0,0.2,0.0,-0.05,-0.99,-0.02,1.00000,-0.00003,0.00007,0.00000,0.022,0.0000
2025,8,21,14:11:44.750,-1.122,23,0.0,0.0,0.1,-0.06,-0.99,-0.02,1.00000,-0.00003,0.00007,0.00000,0.022,0.0000
2025,8,21,14:11:44.752,-1.120,25,0.0,0.1,0.0,-0.07,-0.99,-0.01,1.00000,-0.00003,0.00007,0.00000,0.022,0.0000
2025,8,21,14:11:44.754,-1.118,27,0.0,0.0,0.0,-0.06,-0.99,-0.02,1.00000,-0.00003,0.00007,0.00000,0.022,0.0000
2025,8,21,14:11:44.756,-1.116,29,0.0,0.1,-0.1,-0.07,-0.99,-0.02,1.00000,-0.00003,0.00007,0.00000,0.022,0.0000
2025,8,21,14:11:44.758,-1.114,31,0.0,0.2,0.0,-0.06,-0.98,-0.02,1.00000,-0.00003,0.00010,0.00000,0.022,0.0000
2025,8,21,14:11:44.760,-1.112,33,0.0,0.0,0.0,-0.07,-0.98,-0.01,1.00000,-0.00003,0.00010,0.00000,0.023,0.0000
2025,8,21,14:11:44.762,-1.110,35,0.0,0.1,0.0,-0.05,-1.00,-0.02,1.00000,-0.00003,0.00010,0.00000,0.022,0.0000
2025,8,21,14:11:44.764,-1.108,37,0.0,0.2,0.0,-0.06,-0.99,-0.02,1.00000,-0.00003,0.00010,0.00000,0.022,0.0000
2025,8,21,14:11:44.766,-1.106,39,0.0,0.2,0.0,-0.05,-0.99,-0.02,1.00000,-0.00003,0.00010,0.00000,0.023,0.0000
2025,8,21,14:11:44.768,-1.104,41,0.0,0.2,0.0,-0.06,-0.99,-0.02,1.00000,-0.00003,0.00010,0.00000,0.022,0.0000
2025,8,21,14:11:44.770,-1.102,43,0.0,0.2,0.0,-0.06,-0.99,-0.02,1.00000,-0.00003,0.00010,0.00000,0.022,0.0000
2025,8,21,14:11:44.772,-1.100,45,0.0,0.1,0.0,-0.06,-0.99,-0.02,1.00000,-0.00003,0.00010,0.00000,0.022,0.0000
2025,8,21,14:11:44.774,-1.098,47,0.0,0.2,0.0,-0.06,-1.00,-0.03,1.00000,-0.00003,0.00010,0.00000,0.022,0.0000
2025,8,21,14:11:44.776,-1.096,49,0.0,0.0,0.0,-0.06,-1.00,-0.01,1.00000,-0.00003,0.00010,0.00000,0.023,0.0000
2025,8,21,14:11:44.778,-1.094,51,0.0,0.0,0.1,-0.05,-0.98,-0.03,1.00000,-0.00003,0.00010,0.00000,0.022,0.0000
2025,8,21,14:11:44.780,-1.092,53,0.0,0.0,0.0,-0.06,-0.99,-0.03,1.00000,-0.00003,0.00010,0.00000,0.022,0.0000
2025,8,21,14:11:44.782,-1.090,55,0.1,0.0,0.0,-0.06,-0.99,-0.02,1.00000,-0.00003,0.00010,0.00000,0.022,0.0000
2025,8,21,14:11:44.784,-1.088,57,0.0,-0.2,0.0,-0.06,-1.00,-0.02,1.00000,-0.00003,0.00010,0.00000,0.022,0.0000
2025,8,21,14:11:44.786,-1.086,59,0.0,0.0,0.0,-0.06,-0.99,-0.02,1.00000,-0.00003,0.00010,0.00000,0.022,0.0000
2025,8,21,14:11:44.788,-1.084,61,0.1,-0.1,0.0,-0.06,-0.99,-0.03,1.00000,-0.00003,0.00010,0.00000,0.022,0.0000
2025,8,21,14:11:44.790,-1.082,63,0.0,-0.1,0.0,-0.05,-1.00,-0.02,1.00000,-0.00003,0.00010,0.00000,0.022,0.0000
2025,8,21,14:11:44.792,-1.080,65,0.0,-0.1,0.0,-0.05,-0.99,-0.02,1.00000,-0.00003,0.00010,0.00000,0.023,0.0000
2025,8,21,14:11:44.794,-1.078,67,0.0,-0.1,0.0,-0.06,-0.99,-0.02,1.00000,-0.00003,0.00010,0.00000,0.022,0.0000
2025,8,21,14:11:44.796,-1.076,69,0.0,-0.1,0.0,-0.06,-0.99,-0.02,1.00000,-0.00003,0.00010,0.00000,0.022,0.0000
2025,8,21,14:11:44.798,-1.074,71,0.0,-0.2,0.0,-0.06,-0.99,-0.02,1.00000,-0.00003,0.00010,0.00000,0.022,0.0000
2025,8,21,14:11:44.800,-1.072,73,0.1,-0.2,0.0,-0.06,-0.99,-0.02,1.00000,-0.00003,0.00010,0.00000,0.023,0.0000
2025,8,21,14:11:44.802,-1.070,75,0.0,-0.2,0.0,-0.06,-1.00,-0.02,1.00000,-0.00003,0.00010,0.00000,0.022,0.0000
2025,8,21,14:11:44.804,-1.068,77,0.1,-0.2,-0.1,-0.06,-0.99,-0.01,1.00000,-0.00003,0.00010,0.00000,0.022,0.0000
2025,8,21,14:11:44.806,-1.066,79,0.0,-0.3,0.0,-0.06,-0.99,-0.01,1.00000,-0.00003,0.00007,0.00000,0.022,0.0000
2025,8,21,14:11:44.808,-1.064,81,0.0,-0.1,0.0,-0.06,-0.99,-0.02,1.00000,-0.00003,0.00007,0.00000,0.022,0.0000
2025,8,21,14:11:44.810,-1.062,83,0.0,-0.2,0.1,-0.06,-0.99,-0.02,1.00000,-0.00003,0.00007,0.00000,0.022,0.0000
2025,8,21,14:11:44.812,-1.060,85,0.0,-0.1,0.0,-0.06,-0.99,-0.01,1.00000,-0.00003,0.00007,0.00000,0.022,0.0000
2025,8,21,14:11:44.814,-1.058,87,0.0,-0.2,0.0,-0.05,-0.99,-0.02,1.00000,-0.00003,0.00007,0.00000,0.022,0.0000
2025,8,21,14:11:44.816,-1.056,89,0.0,-0.2,0.0,-0.07,-1.00,-0.01,1.00000,-0.00003,0.00007,0.00000,0.022,0.0000
2025,8,21,14:11:44.818,-1.054,91,0.0,-0.1,0.0,-0.06,-1.00,-0.02,1.00000,-0.00003,0.00007,0.00000,0.022,0.0000
2025,8,21,14:11:44.820,-1.052,93,0.1,0.0,0.1,-0.06,-1.00,-0.01,1.00000,0.00000,0.00007,0.00000,0.022,0.0000
2025,8,21,14:11:44.822,-1.050,95,0.0,-0.1,0.1,-0.07,-1.00,-0.02,1.00000,0.00000,0.00007,0.00000,0.022,0.0000
2025,8,21,14:11:44.824,-1.048,97,0.0,0.0,0.1,-0.07,-0.99,-0.01,1.00000,0.00000,0.00007,0.00000,0.022,0.0000
2025,8,21,14:11:44.826,-1.046,99,0.1,-0.1,0.1,-0.06,-0.99,-0.02,1.00000,0.00000,0.00007,0.00000,0.022,0.0000
2025,8,21,14:11:44.828,-1.044,101,0.0,-0.1,0.1,-0.06,-0.99,-0.02,1.00000,0.00000,0.00003,0.00000,0.022,0.0000
2025,8,21,14:11:44.830,-1.042,103,0.0,-0.1,0.0,-0.07,-1.00,-0.01,1.00000,0.00000,0.00003,0.00000,0.022,0.0000
2025,8,21,14:11:44.832,-1.040,105,0.0,0.0,0.0,-0.07,-0.99,-0.02,1.00000,0.00000,0.00003,0.00000,0.022,0.0000
2025,8,21,14:11:44.834,-1.038,107,0.0,0.0,0.0,-0.06,-0.99,-0.01,1.00000,0.00000,0.00003,0.00000,0.022,0.0000
2025,8,21,14:11:44.836,-1.036,109,0.0,-0.2,0.0,-0.06,-0.99,-0.01,1.00000,0.00000,0.00003,0.00000,0.022,0.0000
2025,8,21,14:11:44.838,-1.034,111,0.1,-0.2,0.1,-0.06,-0.99,-0.01,1.00000,0.00000,0.00003,0.00000,0.022,0.0000
2025,8,21,14:11:44.840,-1.032,113,0.1,-0.2,0.0,-0.06,-0.99,-0.01,1.00000,0.00000,0.00003,0.00000,0.022,0.0000
2025,8,21,14:11:44.842,-1.030,115,0.0,0.0,0.0,-0.06,-1.00,-0.01,1.00000,0.00000,0.00003,0.00000,0.022,0.0000
2025,8,21,14:11:44.844,-1.028,117,0.0,-0.2,0.0,-0.06,-0.99,-0.01,1.00000,0.00000,0.00003,0.00000,0.022,0.0000
2025,8,21,14:11:44.846,-1.026,119,0.0,-0.1,0.0,-0.06,-0.98,-0.01,1.00000,0.00000,0.00003,0.00000,0.022,0.0000
2025,8,21,14:11:44.848,-1.024,121,0.0,-0.3,0.0,-0.06,-0.99,-0.01,1.00000,0.00000,0.00003,0.00000,0.022,0.0000
2025,8,21,14:11:44.850,-1.022,123,0.0,-0.1,0.0,-0.06,-1.00,-0.01,1.00000,0.00000,0.00003,0.00000,0.022,0.0000
2025,8,21,14:11:44.852,-1.020,125,0.0,-0.1,0.1,-0.05,-0.99,-0.02,1.00000,0.00000,0.00000,0.00000,0.023,0.0000
2025,8,21,14:11:44.854,-1.018,127,0.0,-0.1,0.1,-0.06,-1.00,-0.01,1.00000,0.00000,0.00000,0.00000,0.022,0.0000
2025,8,21,14:11:44.856,-1.016,129,0.0,-0.1,0.0,-0.06,-0.99,-0.01,1.00000,0.00000,0.00000,0.00000,0.022,0.0000
2025,8,21,14:11:44.858,-1.014,131,0.0,0.0,0.1,-0.06,-0.99,-0.01,1.00000,0.00000,0.00000,0.00000,0.023,0.0000
2025,8,21,14:11:44.860,-1.012,133,0.0,-0.1,0.0,-0.06,-0.99,-0.01,1.00000,0.00000,0.00000,0.00000,0.022,0.0000
2025,8,21,14:11:44.862,-1.010,135,0.0,-0.1,0.0,-0.06,-0.99,-0.01,1.00000,0.00000,0.00000,0.00000,0.022,0.0000
2025,8,21,14:11:44.864,-1.008,137,0.1,0.0,0.0,-0.05,-1.00,-0.01,1.00000,0.00000,0.00000,0.00000,0.022,0.0000
2025,8,21,14:11:44.866,-1.006,139,0.1,-0.1,0.0,-0.06,-0.99,-0.01,1.00000,0.00000,0.00000,0.00000,0.022,0.0000
2025,8,21,14:11:44.868,-1.004,141,0.1,0.0,-0.1,-0.06,-0.99,-0.02,1.00000,0.00000,0.00000,0.00000,0.022,0.0000
2025,8,21,14:11:44.870,-1.002,143,0.0,0.0,0.0,-0.07,-0.99,-0.01,1.00000,0.00000,0.00000,0.00000,0.023,0.0000
2025,8,21,14:11:44.872,-1.000,145,0.1,-0.2,0.0,-0.06,-1.00,-0.02,1.00000,0.00000,0.00000,0.00000,0.022,0.0000
2025,8,21,14:11:44.874,-0.998,147,0.0,-0.1,0.0,-0.06,-0.99,-0.01,1.00000,0.00000,0.00000,0.00000,0.022,0.0000
2025,8,21,14:11:44.876,-0.996,149,0.0,0.0,0.0,-0.06,-0.99,-0.01,1.00000,0.00000,0.00000,0.00000,0.022,0.0000
2025,8,21,14:11:44.878,-0.994,151,0.0,0.0,0.1,-0.06,-0.99,-0.01,1.00000,0.00000,0.00000,0.00000,0.022,0.0000
2025,8,21,14:11:44.880,-0.992,153,0.0,-0.1,0.0,-0.06,-1.00,-0.01,1.00000,0.00000,0.00000,0.00000,0.022,0.0000
2025,8,21,14:11:44.882,-0.990,155,0.0,0.1,0.0,-0.06,-0.99,-0.01,1.00000,0.00000,0.00000,0.00000,0.022,0.0000
2025,8,21,14:11:44.884,-0.988,157,0.0,0.0,0.0,-0.07,-0.99,-0.01,1.00000,0.00000,0.00000,0.00000,0.022,0.0000
2025,8,21,14:11:44.886,-0.986,159,0.1,0.0,0.0,-0.07,-1.00,-0.01,1.00000,0.00000,0.00000,0.00000,0.022,0.0000
2025,8,21,14:11:44.888,-0.984,161,0.0,0.2,0.0,-0.07,-0.99,-0.01,1.00000,0.00000,0.00000,0.00000,0.022,0.0000
2025,8,21,14:11:44.890,-0.982,163,0.0,0.1,0.0,-0.05,-0.99,0.00,1.00000,0.00000,0.00000,0.00000,0.022,0.0000
2025,8,21,14:11:44.892,-0.980,165,0.0,0.0,0.1,-0.06,-0.99,-0.01,1.00000,0.00000,0.00000,0.00000,0.022,0.0000
2025,8,21,14:11:44.894,-0.978,167,0.0,0.0,0.1,-0.07,-0.99,-0.02,1.00000,0.00000,0.00000,0.00000,0.022,0.0000
2025,8,21,14:11:44.896,-0.976,169,0.0,0.2,-0.1,-0.06,-0.99,-0.02,1.00000,0.00000,0.00000,0.00000,0.023,0.0000
2025,8,21,14:11:44.898,-0.974,171,0.0,-0.2,0.0,-0.06,-1.00,-0.01,1.00000,0.00000,0.00000,0.00000,0.023,0.0000
2025,8,21,14:11:44.900,-0.972,173,0.0,0.1,-0.1,-0.07,-0.99,-0.01,1.00000,0.00000,0.00000,0.00000,0.022,0.0000
2025,8,21,14:11:44.902,-0.970,175,0.1,0.0,0.1,-0.06,-0.99,-0.01,1.00000,0.00000,0.00000,0.00000,0.022,0.0000
2025,8,21,14:11:44.904,-0.968,177,0.0,0.0,-0.1,-0.06,-0.99,-0.01,1.00000,0.00000,0.00000,0.00000,0.022,0.0000
2025,8,21,14:11:44.906,-0.966,179,0.0,0.0,0.1,-0.06,-0.99,-0.01,1.00000,0.00000,0.00000,0.00000,0.022,0.0000
2025,8,21,14:11:44.908,-0.964,181,0.0,0.0,0.1,-0.07,-0.99,-0.02,1.00000,0.00000,0.00000,0.00000,0.022,0.0000
2025,8,21,14:11:44.910,-0.962,183,0.0,0.0,0.0,-0.06,-0.99,-0.01,1.00000,0.00000,0.00000,0.00000,0.022,0.0000
2025,8,21,14:11:44.912,-0.960,185,0.0,0.0,0.0,-0.06,-0.99,-0.01,1.00000,0.00000,0.00000,0.00000,0.022,0.0000
2025,8,21,14:11:44.914,-0.958,187,0.0,0.0,0.0,-0.06,-0.99,-0.01,1.00000,0.00000,0.00000,0.00000,0.022,0.0000
2025,8,21,14:11:44.916,-0.956,189,0.0,0.0,0.0,-0.06,-0.99,-0.01,1.00000,0.00000,0.00000,0.00000,0.022,0.0000
2025,8,21,14:11:44.918,-0.954,191,0.0,0.2,0.0,-0.06,-0.99,-0.01,1.00000,0.00000,0.00000,0.00000,0.022,0.0000
2025,8,21,14:11:44.920,-0.952,193,0.0,0.0,0.0,-0.06,-0.98,-0.01,1.00000,0.00000,0.00000,0.00000,0.022,0.0000
2025,8,21,14:11:44.922,-0.950,195,0.0,0.1,0.0,-0.06,-1.00,-0.01,1.00000,0.00000,0.00000,0.00000,0.023,0.0000
2025,8,21,14:11:44.924,-0.948,197,0.1,0.1,0.0,-0.06,-1.00,-0.02,1.00000,0.00000,0.00000,0.00000,0.023,0.0000
2025,8,21,14:11:44.926,-0.946,199,0.0,0.2,0.1,-0.06,-0.99,-0.02,1.00000,0.00000,0.00003,0.00000,0.022,0.0000
2025,8,21,14:11:44.928,-0.944,201,0.1,0.1,0.0,-0.07,-0.99,-0.01,1.00000,0.00000,0.00003,0.00000,0.022,0.0000
2025,8,21,14:11:44.930,-0.942,203,0.0,0.2,0.0,-0.06,-0.99,-0.02,1.00000,0.00000,0.00003,0.00000,0.022,0.0000
2025,8,21,14:11:44.932,-0.940,205,0.0,0.2,0.0,-0.06,-0.99,-0.02,1.00000,0.00000,0.00003,0.00000,0.022,0.0000
2025,8,21,14:11:44.934,-0.938,207,0.0,0.2,0.0,-0.06,-1.00,-0.01,1.00000,0.00000,0.00003,0.00000,0.022,0.0000
2025,8,21,14:11:44.936,-0.936,209,0.0,0.0,0.0,-0.07,-0.98,-0.01,1.00000,0.00000,0.00003,0.00000,0.022,0.0000
2025,8,21,14:11:44.938,-0.934,211,0.0,0.0,0.0,-0.06,-0.99,-0.02,1.00000,0.00000,0.00003,0.00000,0.022,0.0000
2025,8,21,14:11:44.940,-0.932,213,0.0,0.2,0.0,-0.05,-0.98,-0.02,1.00000,0.00000,0.00003,0.00000,0.022,0.0000
2025,8,21,14:11:44.942,-0.930,215,0.0,0.1,0.0,-0.06,-0.99,-0.01,1.00000,0.00000,0.00003,0.00000,0.022,0.0000
2025,8,21,14:11:44.944,-0.928,217,0.0,0.1,0.0,-0.07,-0.99,-0.02,1.00000,0.00000,0.00003,0.00000,0.022,0.0000
2025,8,21,14:11:44.946,-0.926,219,0.0,0.0,0.1,-0.07,-1.00,-0.01,1.00000,0.00000,0.00003,0.00000,0.022,0.0000
2025,8,21,14:11:44.948,-0.924,221,0.1,0.2,0.0,-0.06,-0.99,-0.01,1.00000,0.00000,0.00007,0.00000,0.022,0.0000
2025,8,21,14:11:44.950,-0.922,223,0.0,0.1,0.0,-0.05,-0.99,-0.02,1.00000,0.00000,0.00007,0.00000,0.022,0.0000
2025,8,21,14:11:44.952,-0.920,225,0.0,0.1,0.0,-0.06,-0.99,-0.02,1.00000,0.00000,0.00007,0.00000,0.023,0.0000
2025,8,21,14:11:44.954,-0.918,227,0.0,0.1,-0.1,-0.06,-0.99,-0.02,1.00000,0.00000,0.00007,0.00000,0.022,0.0000
2025,8,21,14:11:44.956,-0.916,229,0.0,0.0,0.1,-0.06,-0.99,-0.02,1.00000,0.00000,0.00007,0.00000,0.022,0.0000
2025,8,21,14:11:44.958,-0.914,231,0.0,0.0,0.0,-0.06,-0.99,-0.02,1.00000,0.00000,0.00007,0.00000,0.023,0.0000
2025,8,21,14:11:44.960,-0.912,233,0.0,0.1,0.1,-0.06,-0.99,-0.01,1.00000,0.00000,0.00007,0.00000,0.022,0.0000
2025,8,21,14:11:44.962,-0.910,235,0.0,0.0,0.0,-0.08,-1.00,-0.01,1.00000,0.00000,0.00007,0.00000,0.023,0.0000
2025,8,21,14:11:44.964,-0.908,237,0.0,0.1,0.0,-0.06,-0.99,-0.02,1.00000,0.00000,0.00007,0.00000,0.022,0.0000
2025,8,21,14:11:44.966,-0.906,239,0.0,0.0,0.1,-0.06,-1.00,-0.02,1.00000,0.00000,0.00007,0.00003,0.023,0.0000
2025,8,21,14:11:44.968,-0.904,241,0.0,0.0,0.1,-0.06,-0.99,-0.01,1.00000,0.00000,0.00007,0.00003,0.022,0.0000
2025,8,21,14:11:44.970,-0.902,243,0.0,-0.1,0.0,-0.06,-1.00,-0.01,1.00000,0.00000,0.00007,0.00003,0.022,0.0000
2025,8,21,14:11:44.972,-0.900,245,0.0,0.0,0.0,-0.06,-0.99,-0.01,1.00000,0.00000,0.00007,0.00003,0.022,0.0000
2025,8,21,14:11:44.974,-0.898,247,0.1,-0.1,0.0,-0.06,-0.99,-0.02,1.00000,0.00000,0.00007,0.00003,0.022,0.0000
2025,8,21,14:11:44.976,-0.896,249,-0.1,0.0,0.0,-0.07,-0.99,-0.02,1.00000,0.00000,0.00007,0.00003,0.022,0.0000
2025,8,21,14:11:44.978,-0.894,1,0.0,0.0,0.0,-0.06,-0.99,-0.02,1.00000,0.00000,0.00007,0.00003,0.022,0.0000
2025,8,21,14:11:44.980,-0.892,3,0.0,0.0,0.0,-0.06,-0.98,-0.02,1.00000,0.00000,0.00007,0.00003,0.022,0.0000
2025,8,21,14:11:44.982,-0.890,5,0.0,0.0,0.0,-0.06,-0.99,-0.02,1.00000,0.00000,0.00007,0.00003,0.022,0.0000
2025,8,21,14:11:44.984,-0.888,7,-0.1,0.0,-0.1,-0.06,-0.99,-0.01,1.00000,0.00000,0.00007,0.00003,0.022,0.0000
2025,8,21,14:11:44.986,-0.886,9,0.0,-0.1,-0.1,-0.06,-0.99,-0.01,1.00000,0.00000,0.00007,0.00000,0.023,0.0000
2025,8,21,14:11:44.988,-0.884,11,0.0,0.0,0.0,-0.06,-0.99,-0.02,1.00000,0.00000,0.00007,0.00000,0.022,0.0000
2025,8,21,14:11:44.990,-0.882,13,0.0,-0.2,0.0,-0.06,-0.99,-0.01,1.00000,0.00000,0.00007,0.00000,0.023,0.0000
2025,8,21,14:11:44.992,-0.880,15,0.0,0.0,0.1,-0.05,-0.99,-0.02,1.00000,0.00000,0.00007,0.00000,0.023,0.0000
2025,8,21,14:11:44.994,-0.878,17,0.0,0.0,0.0,-0.05,-0.99,-0.01,1.00000,0.00000,0.00007,0.00003,0.022,0.0000
2025,8,21,14:11:44.996,-0.876,19,0.0,0.0,0.0,-0.06,-0.99,-0.01,1.00000,0.00000,0.00007,0.00000,0.023,0.0000
2025,8,21,14:11:44.998,-0.874,21,-0.1,0.0,0.0,-0.06,-1.00,-0.02,1.00000,0.00000,0.00007,0.00000,0.023,0.0000
2025,8,21,14:11:45.000,-0.872,23,0.0,0.0,0.0,-0.05,-1.00,-0.01,1.00000,0.00000,0.00007,0.00000,0.023,0.0000
2025,8,21,14:11:45.002,-0.870,25,0.0,-0.1,0.0,-0.06,-0.99,-0.01,1.00000,0.00000,0.00007,0.00000,0.022,0.0000
2025,8,21,14:11:45.004,-0.868,27,0.0,-0.2,0.0,-0.07,-1.00,-0.01,1.00000,0.00000,0.00003,0.00000,0.022,0.0000
2025,8,21,14:11:45.006,-0.866,29,0.0,0.0,0.0,-0.06,-0.99,-0.01,1.00000,0.00000,0.00003,0.00000,0.022,0.0000
2025,8,21,14:11:45.008,-0.864,31,0.0,0.0,0.1,-0.05,-0.99,-0.01,1.00000,0.00000,0.00003,0.00000,0.022,0.0000
2025,8,21,14:11:45.010,-0.862,33,0.0,0.0,-0.1,-0.07,-1.00,-0.02,1.00000,0.00000,0.00003,0.00000,0.024,0.0000
2025,8,21,14:11:45.012,-0.860,35,0.0,-0.1,0.0,-0.06,-0.99,-0.02,1.00000,0.00000,0.00003,0.00000,0.024,0.0000
2025,8,21,14:11:45.014,-0.858,37,0.0,0.0,0.0,-0.05,-0.99,-0.01,1.00000,0.00000,0.00003,0.00000,0.024,0.0000
2025,8,21,14:11:45.016,-0.856,39,0.0,0.0,0.0,-0.06,-1.00,-0.02,1.00000,0.00000,0.00003,0.00000,0.025,0.0000
2025,8,21,14:11:45.018,-0.854,41,0.0,0.0,0.0,-0.06,-0.99,-0.01,1.00000,0.00000,0.00003,0.00000,0.024,0.0000
2025,8,21,14:11:45.020,-0.852,43,0.0,-0.2,0.0,-0.07,-0.99,-0.01,1.00000,0.00000,0.00003,0.00000,0.024,0.0000
2025,8,21,14:11:45.022,-0.850,45,0.0,0.0,0.0,-0.06,-1.00,-0.01,1.00000,0.00000,0.00003,0.00000,0.024,0.0000
2025,8,21,14:11:45.024,-0.848,47,0.1,-0.2,0.1,-0.07,-0.99,-0.01,1.00000,0.00000,0.00003,0.00000,0.024,0.0000
2025,8,21,14:11:45.026,-0.846,49,0.0,-0.1,-0.1,-0.06,-0.99,-0.01,1.00000,0.00000,0.00003,0.00000,0.024,0.0000
2025,8,21,14:11:45.028,-0.844,51,0.0,-0.2,0.0,-0.07,-0.99,-0.02,1.00000,0.00000,0.00003,0.00000,0.024,0.0000
2025,8,21,14:11:45.030,-0.842,53,0.0,0.0,-0.1,-0.07,-0.99,-0.01,1.00000,0.00000,0.00003,0.00000,0.025,0.0000
2025,8,21,14:11:45.032,-0.840,55,0.0,-0.1,0.1,-0.06,-0.99,-0.01,1.00000,0.00000,0.00003,0.00000,0.024,0.0000
2025,8,21,14:11:45.034,-0.838,57,0.0,0.0,0.0,-0.06,-0.99,-0.02,1.00000,0.00000,0.00003,0.00000,0.024,0.0000
2025,8,21,14:11:45.036,-0.836,59,0.0,0.0,-0.1,-0.06,-1.00,-0.01,1.00000,0.00000,0.00003,0.00000,0.024,0.0000
2025,8,21,14:11:45.038,-0.834,61,0.0,-0.1,0.1,-0.06,-0.99,-0.01,1.00000,0.00000,0.00003,0.00000,0.024,0.0000
2025,8,21,14:11:45.040,-0.832,63,0.0,0.0,0.0,-0.06,-1.00,-0.02,1.00000,0.00000,0.00003,0.00000,0.025,0.0000
2025,8,21,14:11:45.042,-0.830,65,0.0,0.0,0.1,-0.07,-1.00,-0.01,1.00000,0.00000,0.00003,0.00000,0.024,0.0000
2025,8,21,14:11:45.044,-0.828,67,0.0,0.1,0.0,-0.06,-0.99,-0.01,1.00000,0.00000,0.00003,0.00000,0.024,0.0000
2025,8,21,14:11:45.046,-0.826,69,0.0,-0.2,0.0,-0.06,-0.99,-0.01,1.00000,0.00000,0.00003,0.00000,0.025,0.0000
2025,8,21,14:11:45.048,-0.824,71,0.0,0.0,0.0,-0.06,-0.99,-0.01,1.00000,0.00000,0.00003,0.00000,0.022,0.0000
2025,8,21,14:11:45.050,-0.822,73,0.0,0.0,0.0,-0.06,-0.99,-0.01,1.00000,0.00000,0.00003,0.00000,0.022,0.0000
2025,8,21,14:11:45.052,-0.820,75,0.1,0.1,0.0,-0.06,-0.99,-0.02,1.00000,0.00000,0.00003,0.00000,0.022,0.0000
2025,8,21,14:11:45.054,-0.818,77,-0.1,0.0,0.0,-0.06,-0.99,-0.01,1.00000,0.00000,0.00003,0.00000,0.024,0.0000
2025,8,21,14:11:45.056,-0.816,79,-0.1,-0.1,0.0,-0.05,-0.99,-0.01,1.00000,0.00000,0.00003,0.00000,0.024,0.0000
2025,8,21,14:11:45.058,-0.814,81,0.0,0.0,0.0,-0.06,-0.98,-0.01,1.00000,0.00000,0.00003,0.00000,0.024,0.0000
2025,8,21,14:11:45.060,-0.812,83,0.0,-0.1,0.0,-0.06,-1.00,-0.01,1.00000,0.00000,0.00003,0.00000,0.024,0.0000
2025,8,21,14:11:45.062,-0.810,85,0.0,0.0,0.0,-0.06,-0.99,-0.01,1.00000,0.00000,0.00000,0.00000,0.024,0.0000
2025,8,21,14:11:45.064,-0.808,87,0.0,0.0,-0.1,-0.06,-0.99,-0.01,1.00000,0.00000,0.00000,0.00000,0.024,0.0000
2025,8,21,14:11:45.066,-0.806,89,0.0,-0.1,0.1,-0.06,-0.99,-0.01,1.00000,0.00000,0.00000,0.00000,0.024,0.0000
2025,8,21,14:11:45.068,-0.804,91,0.0,0.0,0.1,-0.07,-0.99,-0.01,1.00000,0.00000,0.00000,0.00000,0.024,0.0000
2025,8,21,14:11:45.070,-0.802,93,0.0,0.0,-0.1,-0.06,-1.00,-0.01,1.00000,0.00000,0.00000,0.00000,0.025,0.0000
2025,8,21,14:11:45.072,-0.800,95,0.0,-0.1,-0.1,-0.05,-1.00,-0.01,1.00000,0.00000,0.00000,0.00000,0.024,0.0000
2025,8,21,14:11:45.074,-0.798,97,0.1,0.0,0.0,-0.07,-1.00,-0.02,1.00000,0.00000,0.00000,0.00000,0.024,0.0000
2025,8,21,14:11:45.076,-0.796,99,-0.1,-0.1,-0.1,-0.06,-0.98,-0.01,1.00000,0.00000,0.00000,0.00000,0.022,0.0000
2025,8,21,14:11:45.078,-0.794,101,0.0,0.0,0.0,-0.07,-1.00,-0.01,1.00000,0.00000,0.00000,0.00000,0.022,0.0000
2025,8,21,14:11:45.080,-0.792,103,0.0,-0.1,0.0,-0.06,-0.99,-0.02,1.00000,0.00000,0.00000,0.00000,0.023,0.0000
2025,8,21,14:11:45.082,-0.790,105,0.0,-0.1,0.1,-0.06,-0.99,-0.01,1.00000,0.00000,0.00000,0.00000,0.022,0.0000
2025,8,21,14:11:45.084,-0.788,107,0.0,0.0,0.1,-0.07,-0.98,-0.01,1.00000,0.00000,0.00000,0.00000,0.022,0.0000
2025,8,21,14:11:45.086,-0.786,109,0.0,-0.1,-0.1,-0.07,-0.99,-0.02,1.00000,0.00000,0.00000,0.00000,0.023,0.0000
2025,8,21,14:11:45.088,-0.784,111,0.0,0.0,0.0,-0.06,-0.99,-0.01,1.00000,0.00000,0.00000,0.00000,0.022,0.0000
2025,8,21,14:11:45.090,-0.782,113,0.0,0.0,0.0,-0.07,-0.99,-0.01,1.00000,0.00000,0.00000,0.00000,0.022,0.0000
2025,8,21,14:11:45.092,-0.780,115,0.0,0.0,0.0,-0.05,-0.99,-0.01,1.00000,0.00000,0.00000,0.00000,0.022,0.0000
2025,8,21,14:11:45.094,-0.778,117,0.0,0.0,0.0,-0.06,-0.99,-0.01,1.00000,0.00000,0.00000,0.00000,0.022,0.0000
2025,8,21,14:11:45.096,-0.776,119,0.0,0.0,0.0,-0.06,-0.99,-0.01,1.00000,0.00000,0.00000,0.00000,0.022,0.0000
2025,8,21,14:11:45.098,-0.774,121,0.0,0.1,0.0,-0.06,-0.99,-0.01,1.00000,0.00000,0.00000,0.00000,0.022,0.0000
2025,8,21,14:11:45.100,-0.772,123,0.0,0.0,0.1,-0.06,-1.00,-0.02,1.00000,0.00000,0.00000,0.00000,0.022,0.0000
2025,8,21,14:11:45.102,-0.770,125,0.0,0.0,0.0,-0.06,-0.99,0.00,1.00000,0.00000,0.00000,0.00000,0.022,0.0000
2025,8,21,14:11:45.104,-0.768,127,0.0,0.0,0.0,-0.07,-1.00,-0.01,1.00000,0.00000,0.00000,0.00000,0.022,0.0000
2025,8,21,14:11:45.106,-0.766,129,-0.1,0.1,0.0,-0.05,-0.99,-0.01,1.00000,0.00000,0.00000,0.00000,0.022,0.0000
2025,8,21,14:11:45.108,-0.764,131,0.0,0.1,0.1,-0.06,-0.99,-0.02,1.00000,0.00000,0.00000,0.00000,0.022,0.0000
2025,8,21,14:11:45.110,-0.762,133,0.0,0.0,0.0,-0.06,-0.99,-0.02,1.00000,0.00000,0.00000,0.00000,0.023,0.0000
2025,8,21,14:11:45.112,-0.760,135,0.0,0.1,0.0,-0.05,-0.99,-0.01,1.00000,0.00000,0.00000,0.00000,0.022,0.0000
2025,8,21,14:11:45.114,-0.758,137,0.0,0.1,0.0,-0.06,-0.99,-0.02,1.00000,0.00000,0.00000,0.00000,0.022,0.0000
2025,8,21,14:11:45.116,-0.756,139,-0.1,0.0,0.0,-0.06,-0.99,-0.01,1.00000,0.00000,0.00000,0.00000,0.022,0.0000
2025,8,21,14:11:45.118,-0.754,141,0.0,0.1,0.0,-0.06,-0.99,-0.01,1.00000,0.00000,0.00000,0.00000,0.022,0.0000
2025,8,21,14:11:45.120,-0.752,143,0.0,0.2,-0.1,-0.06,-0.99,-0.01,1.00000,0.00000,0.00000,0.00000,0.022,0.0000
2025,8,21,14:11:45.122,-0.750,145,0.0,0.2,0.0,-0.06,-1.01,-0.01,1.00000,0.00000,0.00000,0.00000,0.023,0.0000
2025,8,21,14:11:45.124,-0.748,147,0.0,0.1,0.0,-0.05,-0.95,0.04,1.00000,0.00000,0.00000,0.00000,0.022,0.0000
2025,8,21,14:11:45.126,-0.746,149,0.0,0.1,0.0,-0.07,-1.01,-0.10,1.00000,0.00000,0.00000,0.00000,0.022,0.0000
2025,8,21,14:11:45.128,-0.744,151,0.6,-0.2,-0.1,-0.10,-1.15,0.03,1.00000,0.00000,0.00000,0.00000,0.022,0.0000
2025,8,21,14:11:45.130,-0.742,153,-1.2,0.9,0.1,-0.02,-0.82,-0.15,1.00000,-0.00003,0.00000,0.00000,0.022,0.0000
2025,8,21,14:11:45.132,-0.740,155,-0.5,0.7,0.1,-0.05,-0.87,-0.17,1.00000,-0.00003,0.00003,0.00000,0.023,0.0000
2025,8,21,14:11:45.134,-0.738,157,-0.2,0.3,0.0,-0.04,-1.05,0.12,1.00000,-0.00003,0.00003,0.00000,0.022,0.0000
2025,8,21,14:11:45.136,-0.736,159,-0.5,0.4,-0.1,-0.03,-0.93,0.06,1.00000,-0.00003,0.00003,0.00000,0.022,0.0000
2025,8,21,14:11:45.138,-0.734,161,-0.3,-0.2,0.1,-0.04,-0.90,-0.07,1.00000,-0.00003,0.00003,0.00000,0.022,0.0000
2025,8,21,14:11:45.140,-0.732,163,0.6,0.4,0.0,-0.06,-1.06,0.06,1.00000,-0.00003,0.00003,0.00000,0.022,0.0000
2025,8,21,14:11:45.142,-0.730,165,0.4,0.4,-0.1,-0.03,-1.01,0.04,1.00000,-0.00003,0.00003,0.00000,0.022,0.0000
2025,8,21,14:11:45.144,-0.728,167,0.0,0.2,0.1,-0.09,-0.99,-0.06,1.00000,-0.00003,0.00003,0.00000,0.022,0.0000
2025,8,21,14:11:45.146,-0.726,169,0.1,0.1,-0.1,-0.09,-1.03,0.00,1.00000,-0.00003,0.00007,0.00000,0.022,0.0000
2025,8,21,14:11:45.148,-0.724,171,-0.1,0.5,0.1,-0.07,-0.96,0.01,1.00000,-0.00003,0.00007,0.00000,0.022,0.0000
2025,8,21,14:11:45.150,-0.722,173,0.1,0.2,0.0,-0.06,-1.00,-0.05,1.00000,-0.00003,0.00007,0.00000,0.022,0.0000
2025,8,21,14:11:45.152,-0.720,175,0.0,0.2,-0.1,-0.08,-1.03,0.00,1.00000,-0.00003,0.00007,0.00000,0.022,0.0000
2025,8,21,14:11:45.154,-0.718,177,-0.1,0.2,0.0,-0.04,-0.96,-0.07,1.00000,-0.00003,0.00007,0.00000,0.022,0.0000
2025,8,21,14:11:45.156,-0.716,179,-0.2,0.1,0.1,-0.05,-0.98,-0.06,1.00000,-0.00003,0.00007,0.00000,0.022,0.0000
2025,8,21,14:11:45.158,-0.714,181,0.1,0.0,-0.1,-0.06,-0.97,0.01,1.00000,-0.00003,0.00007,0.00000,0.023,0.0000
2025,8,21,14:11:45.160,-0.712,183,-0.3,0.3,0.0,-0.04,-0.94,-0.06,1.00000,-0.00003,0.00010,0.00000,0.022,0.0000
2025,8,21,14:11:45.162,-0.710,185,0.0,0.2,0.1,-0.06,-0.98,-0.09,1.00000,-0.00003,0.00010,0.00000,0.022,0.0000
2025,8,21,14:11:45.164,-0.708,187,-0.3,0.1,0.0,-0.05,-0.98,0.01,1.00000,-0.00003,0.00010,0.00000,0.022,0.0000
2025,8,21,14:11:45.166,-0.706,189,0.0,0.2,0.0,-0.04,-0.95,-0.03,1.00000,-0.00003,0.00010,0.00000,0.023,0.0000
2025,8,21,14:11:45.168,-0.704,191,-0.1,0.0,0.0,-0.06,-1.02,0.01,1.00000,-0.00003,0.00010,0.00000,0.022,0.0000
2025,8,21,14:11:45.170,-0.702,193,0.0,0.1,0.0,-0.04,-0.96,0.00,1.00000,-0.00003,0.00010,0.00000,0.022,0.0000
2025,8,21,14:11:45.172,-0.700,195,0.0,0.0,0.0,-0.05,-1.01,-0.02,1.00000,-0.00003,0.00010,0.00000,0.023,0.0000
2025,8,21,14:11:45.174,-0.698,197,0.0,0.1,-0.1,-0.05,-0.98,-0.02,1.00000,-0.00003,0.00010,0.00000,0.022,0.0000
2025,8,21,14:11:45.176,-0.696,199,0.0,-0.1,0.1,-0.04,-0.96,-0.03,1.00000,-0.00007,0.00010,0.00000,0.023,0.0000
2025,8,21,14:11:45.178,-0.694,201,0.0,0.0,0.0,-0.07,-1.00,0.00,1.00000,-0.00007,0.00010,0.00000,0.022,0.0000
2025,8,21,14:11:45.180,-0.692,203,-0.2,0.0,0.0,-0.06,-0.96,-0.03,1.00000,-0.00007,0.00010,0.00000,0.022,0.0000
2025,8,21,14:11:45.182,-0.690,205,0.1,0.0,0.0,-0.06,-1.02,0.00,1.00000,-0.00007,0.00010,0.00000,0.022,0.0000
2025,8,21,14:11:45.184,-0.688,207,-0.2,0.0,0.0,-0.07,-0.97,-0.02,1.00000,-0.00007,0.00010,0.00000,0.022,0.0000
2025,8,21,14:11:45.186,-0.686,209,0.0,-0.1,0.0,-0.05,-1.00,-0.04,1.00000,-0.00007,0.00010,0.00000,0.022,0.0000
2025,8,21,14:11:45.188,-0.684,211,0.0,0.0,-0.1,-0.06,-0.99,-0.03,1.00000,-0.00007,0.00010,0.00000,0.022,0.0000
2025,8,21,14:11:45.190,-0.682,213,0.0,0.0,0.1,-0.05,-0.98,-0.03,1.00000,-0.00007,0.00010,0.00000,0.022,0.0000
2025,8,21,14:11:45.192,-0.680,215,-0.2,-0.2,0.1,-0.07,-0.98,-0.03,1.00000,-0.00007,0.00010,0.00000,0.022,0.0000
2025,8,21,14:11:45.194,-0.678,217,0.0,0.0,-0.1,-0.06,-0.99,-0.03,1.00000,-0.00007,0.00010,0.00000,0.022,0.0000
2025,8,21,14:11:45.196,-0.676,219,0.0,0.0,0.0,-0.06,-0.99,-0.01,1.00000,-0.00007,0.00010,0.00000,0.022,0.0000
2025,8,21,14:11:45.198,-0.674,221,0.0,-0.1,0.1,-0.07,-0.99,-0.01,1.00000,-0.00007,0.00010,0.00000,0.022,0.0000
2025,8,21,14:11:45.200,-0.672,223,0.0,0.0,0.1,-0.06,-0.99,-0.03,1.00000,-0.00007,0.00010,0.00000,0.022,0.0000
2025,8,21,14:11:45.202,-0.670,225,0.0,0.0,0.1,-0.06,-0.99,-0.02,1.00000,-0.00007,0.00010,0.00000,0.022,0.0000
2025,8,21,14:11:45.204,-0.668,227,0.0,-0.2,0.0,-0.07,-0.99,-0.02,1.00000,-0.00007,0.00010,0.00000,0.022,0.0000
2025,8,21,14:11:45.206,-0.666,229,0.0,-0.2,0.1,-0.07,-0.99,-0.02,1.00000,-0.00007,0.00010,0.00000,0.022,0.0000
2025,8,21,14:11:45.208,-0.664,231,0.0,0.0,0.0,-0.06,-0.98,-0.02,1.00000,-0.00007,0.00010,0.00000,0.022,0.0000
2025,8,21,14:11:45.210,-0.662,233,0.0,-0.2,0.1,-0.07,-0.99,-0.01,1.00000,-0.00007,0.00007,0.00000,0.022,0.0000
2025,8,21,14:11:45.212,-0.660,235,0.0,-0.1,0.0,-0.06,-0.99,-0.01,1.00000,-0.00007,0.00007,0.00000,0.022,0.0000
2025,8,21,14:11:45.214,-0.658,237,0.0,0.0,-0.1,-0.06,-0.99,-0.01,1.00000,-0.00007,0.00007,0.00000,0.022,0.0000
2025,8,21,14:11:45.216,-0.656,239,0.0,0.0,0.0,-0.05,-0.98,-0.01,1.00000,-0.00007,0.00007,0.00000,0.022,0.0000
2025,8,21,14:11:45.218,-0.654,241,0.0,0.0,0.0,-0.07,-0.99,-0.01,1.00000,-0.00007,0.00007,0.00000,0.022,0.0000
2025,8,21,14:11:45.220,-0.652,243,0.1,0.0,0.0,-0.06,-0.99,-0.01,1.00000,-0.00007,0.00007,0.00000,0.022,0.0000
2025,8,21,14:11:45.222,-0.650,245,0.0,0.0,-0.1,-0.06,-0.99,-0.02,1.00000,-0.00007,0.00007,0.00000,0.023,0.0000
2025,8,21,14:11:45.224,-0.648,247,0.0,0.0,0.1,-0.06,-1.00,0.00,1.00000,-0.00007,0.00007,0.00000,0.022,0.0000
2025,8,21,14:11:45.226,-0.646,249,0.0,0.0,0.0,-0.06,-1.00,-0.01,1.00000,-0.00007,0.00007,0.00000,0.022,0.0000
2025,8,21,14:11:45.228,-0.644,1,0.0,0.0,-0.1,-0.05,-0.99,-0.02,1.00000,-0.00007,0.00007,0.00000,0.022,0.0000
2025,8,21,14:11:45.230,-0.642,3,0.1,0.0,0.0,-0.06,-0.99,-0.03,1.00000,-0.00007,0.00007,0.00000,0.022,0.0000
2025,8,21,14:11:45.232,-0.640,5,0.0,0.0,0.1,-0.06,-0.99,-0.01,1.00000,-0.00007,0.00007,0.00000,0.022,0.0000
2025,8,21,14:11:45.234,-0.638,7,0.0,0.0,0.0,-0.07,-0.99,-0.02,1.00000,-0.00007,0.00007,0.00000,0.022,0.0000
2025,8,21,14:11:45.236,-0.636,9,0.1,-0.1,0.1,-0.07,-0.99,-0.02,1.00000,-0.00007,0.00007,0.00000,0.022,0.0000
2025,8,21,14:11:45.238,-0.634,11,0.0,0.0,0.0,-0.06,-0.99,-0.01,1.00000,-0.00007,0.00007,0.00000,0.023,0.0000
2025,8,21,14:11:45.240,-0.632,13,0.0,0.0,0.1,-0.06,-1.00,-0.01,1.00000,-0.00007,0.00007,0.00000,0.023,0.0000
2025,8,21,14:11:45.242,-0.630,15,0.1,-0.1,0.0,-0.06,-0.99,-0.02,1.00000,-0.00007,0.00007,0.00000,0.023,0.0000
2025,8,21,14:11:45.244,-0.628,17,0.0,-0.2,0.0,-0.06,-0.98,-0.01,1.00000,-0.00007,0.00007,0.00000,0.022,0.0000
2025,8,21,14:11:45.246,-0.626,19,0.1,-0.1,0.0,-0.06,-0.99,-0.01,1.00000,-0.00007,0.00007,0.00000,0.023,0.0000
2025,8,21,14:11:45.248,-0.624,21,0.0,-0.1,0.0,-0.05,-0.98,-0.02,1.00000,-0.00007,0.00007,0.00000,0.023,0.0000
2025,8,21,14:11:45.250,-0.622,23,0.0,-0.2,0.0,-0.06,-0.99,-0.01,1.00000,-0.00007,0.00007,0.00000,0.022,0.0000
2025,8,21,14:11:45.252,-0.620,25,0.1,-0.1,0.0,-0.06,-1.00,-0.01,1.00000,-0.00003,0.00007,0.00000,0.022,0.0000
2025,8,21,14:11:45.254,-0.618,27,0.0,-0.1,0.0,-0.06,-1.00,-0.01,1.00000,-0.00003,0.00007,0.00000,0.023,0.0000
2025,8,21,14:11:45.256,-0.616,29,0.0,-0.2,0.0,-0.06,-1.00,-0.02,1.00000,-0.00003,0.00003,0.00000,0.023,0.0000
2025,8,21,14:11:45.258,-0.614,31,0.0,0.0,0.1,-0.06,-0.99,0.00,1.00000,-0.00003,0.00003,0.00000,0.022,0.0000
2025,8,21,14:11:45.260,-0.612,33,0.1,0.0,0.0,-0.05,-0.99,-0.02,1.00000,-0.00003,0.00003,0.00000,0.023,0.0000
2025,8,21,14:11:45.262,-0.610,35,0.0,-0.2,0.0,-0.06,-1.00,-0.01,1.00000,-0.00003,0.00003,0.00000,0.022,0.0000
2025,8,21,14:11:45.264,-0.608,37,0.0,-0.2,0.0,-0.06,-0.99,-0.01,1.00000,-0.00003,0.00003,0.00000,0.022,0.0000
2025,8,21,14:11:45.266,-0.606,39,0.0,-0.3,0.0,-0.06,-0.99,-0.01,1.00000,-0.00003,0.00003,0.00000,0.022,0.0000
2025,8,21,14:11:45.268,-0.604,41,-0.1,-0.1,0.1,-0.06,-0.98,-0.01,1.00000,-0.00003,0.00003,0.00000,0.022,0.0000
2025,8,21,14:11:45.270,-0.602,43,0.0,-0.2,0.0,-0.06,-1.00,-0.01,1.00000,-0.00003,0.00003,0.00000,0.023,0.0000
2025,8,21,14:11:45.272,-0.600,45,0.0,-0.2,0.0,-0.07,-0.99,-0.02,1.00000,-0.00003,0.00003,0.00000,0.022,0.0000
2025,8,21,14:11:45.274,-0.598,47,0.0,-0.2,0.0,-0.06,-0.99,-0.02,1.00000,-0.00003,0.00000,0.00000,0.022,0.0000
2025,8,21,14:11:45.276,-0.596,49,0.1,-0.2,0.0,-0.06,-1.00,-0.01,1.00000,-0.00003,0.00000,0.00000,0.022,0.0000
2025,8,21,14:11:45.278,-0.594,51,0.0,-0.2,0.0,-0.06,-0.99,-0.01,1.00000,-0.00003,0.00000,0.00000,0.022,0.0000
2025,8,21,14:11:45.280,-0.592,53,0.0,-0.2,0.1,-0.06,-1.00,-0.01,1.00000,-0.00003,0.00000,0.00000,0.022,0.0000
2025,8,21,14:11:45.282,-0.590,55,-0.1,0.0,0.0,-0.05,-0.99,-0.01,1.00000,-0.00003,0.00000,0.00000,0.023,0.0000
2025,8,21,14:11:45.284,-0.588,57,0.0,-0.3,0.1,-0.06,-1.00,-0.01,1.00000,-0.00003,0.00000,0.00000,0.022,0.0000
2025,8,21,14:11:45.286,-0.586,59,0.1,-0.2,0.1,-0.05,-1.00,-0.01,1.00000,-0.00003,0.00000,0.00000,0.022,0.0000
2025,8,21,14:11:45.288,-0.584,61,0.0,-0.1,-0.1,-0.06,-1.00,0.00,1.00000,-0.00003,0.00000,0.00000,0.022,0.0000
2025,8,21,14:11:45.290,-0.582,63,0.0,0.0,-0.1,-0.07,-1.00,-0.01,1.00000,-0.00003,0.00000,0.00000,0.023,0.0000
2025,8,21,14:11:45.292,-0.580,65,0.0,0.0,0.0,-0.06,-1.00,-0.02,1.00000,-0.00003,0.00000,0.00000,0.022,0.0000
2025,8,21,14:11:45.294,-0.578,67,0.0,0.0,0.0,-0.05,-0.99,-0.01,1.00000,-0.00003,0.00000,0.00000,0.022,0.0000
2025,8,21,14:11:45.296,-0.576,69,0.0,0.0,0.1,-0.06,-0.99,-0.01,1.00000,-0.00003,0.00000,0.00000,0.022,0.0000
2025,8,21,14:11:45.298,-0.574,71,0.0,0.0,0.0,-0.06,-0.99,0.00,1.00000,-0.00003,0.00000,0.00000,0.022,0.0000
2025,8,21,14:11:45.300,-0.572,73,0.0,0.1,-0.1,-0.06,-0.99,-0.01,1.00000,-0.00003,0.00000,0.00000,0.022,0.0000
2025,8,21,14:11:45.302,-0.570,75,0.0,0.1,0.0,-0.06,-1.00,-0.01,1.00000,-0.00003,0.00000,0.00000,0.022,0.0000
2025,8,21,14:11:45.304,-0.568,77,0.0,0.0,0.0,-0.07,-0.99,-0.01,1.00000,-0.00003,0.00000,0.00000,0.022,0.0000
2025,8,21,14:11:45.306,-0.566,79,0.0,0.2,0.0,-0.07,-0.99,-0.02,1.00000,-0.00003,0.00000,0.00000,0.022,0.0000
2025,8,21,14:11:45.308,-0.564,81,0.0,0.2,0.1,-0.05,-1.00,-0.02,1.00000,-0.00003,0.00000,0.00000,0.022,0.0000
2025,8,21,14:11:45.310,-0.562,83,0.0,0.2,0.0,-0.07,-1.00,-0.01,1.00000,-0.00003,0.00000,0.00000,0.022,0.0000
2025,8,21,14:11:45.312,-0.560,85,0.0,0.4,0.0,-0.07,-1.00,-0.02,1.00000,-0.00003,0.00003,0.00000,0.022,0.0000
2025,8,21,14:11:45.314,-0.558,87,0.0,0.4,0.0,-0.06,-0.99,0.00,1.00000,-0.00003,0.00003,0.00000,0.023,0.0000
2025,8,21,14:11:45.316,-0.556,89,0.0,0.4,-0.1,-0.07,-0.99,-0.02,1.00000,-0.00003,0.00003,0.00000,0.022,0.0000
2025,8,21,14:11:45.318,-0.554,91,0.0,0.2,0.0,-0.06,-0.99,-0.01,1.00000,-0.00003,0.00003,0.00000,0.023,0.0000
2025,8,21,14:11:45.320,-0.552,93,-0.1,0.4,0.1,-0.06,-1.00,-0.02,1.00000,-0.00003,0.00003,0.00000,0.022,0.0000
2025,8,21,14:11:45.322,-0.550,95,0.0,0.4,0.0,-0.06,-1.00,-0.02,1.00000,-0.00003,0.00007,0.00000,0.023,0.0000
2025,8,21,14:11:45.324,-0.548,97,0.0,0.3,0.0,-0.06,-1.00,-0.02,1.00000,-0.00003,0.00007,0.00000,0.022,0.0000
2025,8,21,14:11:45.326,-0.546,99,0.1,0.3,0.0,-0.06,-0.99,-0.01,1.00000,-0.00003,0.00007,0.00000,0.022,0.0000
2025,8,21,14:11:45.328,-0.544,101,0.0,0.4,0.0,-0.06,-0.99,-0.02,1.00000,-0.00003,0.00007,0.00000,0.023,0.0000
2025,8,21,14:11:45.330,-0.542,103,0.0,0.5,0.0,-0.07,-0.99,-0.01,1.00000,-0.00003,0.00010,0.00000,0.023,0.0000
2025,8,21,14:11:45.332,-0.540,105,0.0,0.4,0.0,-0.06,-1.00,-0.01,1.00000,-0.00003,0.00010,0.00000,0.022,0.0000
2025,8,21,14:11:45.334,-0.538,107,0.0,0.3,0.0,-0.06,-0.99,-0.01,1.00000,-0.00003,0.00010,0.00000,0.022,0.0000
2025,8,21,14:11:45.336,-0.536,109,0.0,0.2,0.0,-0.07,-0.99,-0.02,1.00000,-0.00003,0.00010,0.00000,0.023,0.0000
2025,8,21,14:11:45.338,-0.534,111,0.0,0.3,-0.1,-0.06,-0.99,-0.02,1.00000,-0.00003,0.00010,0.00000,0.023,0.0000
2025,8,21,14:11:45.340,-0.532,113,0.0,0.2,0.0,-0.06,-1.00,-0.01,1.00000,-0.00003,0.00010,0.00000,0.022,0.0000
2025,8,21,14:11:45.342,-0.530,115,0.0,0.2,0.0,-0.06,-0.99,-0.01,1.00000,-0.00003,0.00010,0.00000,0.022,0.0000
2025,8,21,14:11:45.344,-0.528,117,0.0,0.0,-0.1,-0.07,-1.00,-0.02,1.00000,-0.00003,0.00013,0.00000,0.022,0.0000
2025,8,21,14:11:45.346,-0.526,119,0.0,0.0,0.0,-0.06,-0.98,-0.02,1.00000,-0.00003,0.00013,0.00000,0.022,0.0000
2025,8,21,14:11:45.348,-0.524,121,0.0,0.0,0.1,-0.06,-0.99,-0.02,1.00000,-0.00003,0.00013,0.00000,0.023,0.0000
2025,8,21,14:11:45.350,-0.522,123,0.0,0.0,0.0,-0.06,-0.99,-0.02,1.00000,-0.00003,0.00013,0.00000,0.023,0.0000
2025,8,21,14:11:45.352,-0.520,125,0.0,0.0,0.0,-0.05,-0.99,-0.01,1.00000,-0.00003,0.00013,0.00000,0.022,0.0000
2025,8,21,14:11:45.354,-0.518,127,-0.1,0.0,0.0,-0.06,-0.99,-0.01,1.00000,-0.00003,0.00013,0.00000,0.022,0.0000
2025,8,21,14:11:45.356,-0.516,129,0.0,-0.2,0.0,-0.06,-0.99,-0.01,1.00000,-0.00003,0.00010,0.00000,0.022,0.0000
2025,8,21,14:11:45.358,-0.514,131,0.0,-0.2,0.0,-0.06,-0.99,-0.02,1.00000,-0.00003,0.00010,0.00000,0.023,0.0000
2025,8,21,14:11:45.360,-0.512,133,-0.1,-0.1,-0.1,-0.06,-1.00,-0.03,1.00000,-0.00003,0.00010,0.00000,0.022,0.0000
2025,8,21,14:11:45.362,-0.510,135,0.0,-0.1,-0.1,-0.06,-1.00,-0.02,1.00000,-0.00003,0.00010,0.00000,0.022,0.0000
2025,8,21,14:11:45.364,-0.508,137,0.0,-0.1,0.0,-0.06,-0.99,-0.02,1.00000,-0.00003,0.00010,0.00000,0.023,0.0000
2025,8,21,14:11:45.366,-0.506,139,0.0,-0.1,0.1,-0.06,-0.99,-0.02,1.00000,-0.00003,0.00010,0.00000,0.022,0.0000
2025,8,21,14:11:45.368,-0.504,141,0.0,0.0,-0.1,-0.06,-0.99,-0.01,1.00000,-0.00003,0.00010,0.00000,0.023,0.0000
2025,8,21,14:11:45.370,-0.502,143,0.0,-0.1,0.0,-0.06,-0.99,-0.02,1.00000,-0.00003,0.00010,0.00000,0.022,0.0000
2025,8,21,14:11:45.372,-0.500,145,-0.1,0.0,0.0,-0.06,-0.99,-0.01,1.00000,-0.00003,0.00010,0.00000,0.023,0.0000
2025,8,21,14:11:45.374,-0.498,147,-0.1,-0.2,0.0,-0.06,-1.00,-0.01,1.00000,-0.00007,0.00010,0.00000,0.023,0.0000
2025,8,21,14:11:45.376,-0.496,149,0.0,-0.1,0.0,-0.06,-0.99,-0.02,1.00000,-0.00007,0.00010,0.00000,0.023,0.0000
2025,8,21,14:11:45.378,-0.494,151,0.0,-0.1,0.0,-0.06,-1.00,-0.01,1.00000,-0.00007,0.00010,0.00000,0.022,0.0000
2025,8,21,14:11:45.380,-0.492,153,-0.1,0.0,0.0,-0.07,-0.99,-0.02,1.00000,-0.00007,0.00010,0.00000,0.022,0.0000
2025,8,21,14:11:45.382,-0.490,155,0.0,0.0,0.1,-0.06,-0.98,-0.02,1.00000,-0.00007,0.00010,0.00000,0.022,0.0000
2025,8,21,14:11:45.384,-0.488,157,0.0,0.0,0.0,-0.07,-0.99,-0.01,1.00000,-0.00007,0.00010,0.00000,0.022,0.0000
2025,8,21,14:11:45.386,-0.486,159,0.0,-0.1,0.0,-0.06,-1.00,-0.02,1.00000,-0.00007,0.00007,0.00000,0.022,0.0000
2025,8,21,14:11:45.388,-0.484,161,0.0,-0.2,0.0,-0.06,-0.99,-0.02,1.00000,-0.00007,0.00007,0.00000,0.022,0.0000
2025,8,21,14:11:45.390,-0.482,163,0.0,-0.2,0.0,-0.07,-0.99,-0.01,1.00000,-0.00007,0.00007,0.00000,0.022,0.0000
2025,8,21,14:11:45.392,-0.480,165,0.0,0.0,0.0,-0.07,-0.99,-0.01,1.00000,-0.00007,0.00007,0.00000,0.022,0.0000
2025,8,21,14:11:45.394,-0.478,167,0.0,-0.2,0.0,-0.05,-0.99,-0.01,1.00000,-0.00007,0.00007,0.00000,0.023,0.0000
2025,8,21,14:11:45.396,-0.476,169,0.0,-0.2,-0.1,-0.06,-0.99,-0.02,1.00000,-0.00007,0.00007,0.00000,0.023,0.0000
2025,8,21,14:11:45.398,-0.474,171,0.1,0.0,0.0,-0.05,-1.00,-0.01,1.00000,-0.00007,0.00007,0.00000,0.022,0.0000
2025,8,21,14:11:45.400,-0.472,173,0.0,0.0,0.0,-0.06,-0.99,-0.02,1.00000,-0.00003,0.00007,0.00000,0.022,0.0000
2025,8,21,14:11:45.402,-0.470,175,0.0,0.0,0.1,-0.06,-0.99,-0.02,1.00000,-0.00003,0.00007,0.00000,0.022,0.0000
2025,8,21,14:11:45.404,-0.468,177,0.0,0.0,-0.1,-0.06,-1.00,-0.01,1.00000,-0.00003,0.00007,0.00000,0.022,0.0000
2025,8,21,14:11:45.406,-0.466,179,0.1,0.0,-0.1,-0.05,-0.99,-0.02,1.00000,-0.00003,0.00007,0.00000,0.022,0.0000
2025,8,21,14:11:45.408,-0.464,181,0.1,0.0,0.0,-0.07,-1.00,-0.02,1.00000,-0.00003,0.00007,0.00000,0.022,0.0000
2025,8,21,14:11:45.410,-0.462,183,0.0,0.0,0.0,-0.06,-0.99,-0.02,1.00000,-0.00003,0.00007,0.00000,0.023,0.0000
2025,8,21,14:11:45.412,-0.460,185,0.0,0.0,-0.1,-0.06,-0.99,-0.02,1.00000,-0.00003,0.00007,0.00000,0.023,0.0000
2025,8,21,14:11:45.414,-0.458,187,0.0,0.0,0.0,-0.06,-1.00,-0.01,1.00000,-0.00003,0.00007,0.00000,0.022,0.0000
2025,8,21,14:11:45.416,-0.456,189,0.0,0.0,0.0,-0.06,-1.00,-0.01,1.00000,-0.00003,0.00007,0.00000,0.022,0.0000
2025,8,21,14:11:45.418,-0.454,191,0.0,-0.1,-0.1,-0.06,-0.99,-0.01,1.00000,-0.00003,0.00007,0.00000,0.022,0.0000
2025,8,21,14:11:45.420,-0.452,193,0.1,0.0,0.0,-0.06,-0.98,-0.02,1.00000,-0.00003,0.00007,0.00000,0.022,0.0000
2025,8,21,14:11:45.422,-0.450,195,0.0,0.0,0.1,-0.06,-0.99,-0.02,1.00000,-0.00003,0.00007,0.00000,0.022,0.0000
2025,8,21,14:11:45.424,-0.448,197,0.0,0.1,0.0,-0.05,-1.00,-0.02,1.00000,-0.00003,0.00007,0.00000,0.022,0.0000
2025,8,21,14:11:45.426,-0.446,199,0.0,0.0,-0.1,-0.06,-1.00,-0.01,1.00000,-0.00003,0.00007,0.00000,0.022,0.0000
2025,8,21,14:11:45.428,-0.444,201,0.0,0.0,0.0,-0.07,-1.00,-0.01,1.00000,-0.00003,0.00007,0.00000,0.023,0.0000
2025,8,21,14:11:45.430,-0.442,203,0.0,0.0,0.0,-0.06,-0.99,-0.01,1.00000,-0.00003,0.00007,0.00000,0.022,0.0000
2025,8,21,14:11:45.432,-0.440,205,0.0,0.0,0.1,-0.06,-0.99,-0.02,1.00000,-0.00003,0.00007,0.00000,0.022,0.0000
2025,8,21,14:11:45.434,-0.438,207,0.0,0.0,0.0,-0.07,-0.99,-0.01,1.00000,-0.00003,0.00007,0.00000,0.022,0.0000
2025,8,21,14:11:45.436,-0.436,209,0.0,0.0,-0.1,-0.06,-1.00,-0.02,1.00000,-0.00003,0.00007,0.00000,0.022,0.0000
2025,8,21,14:11:45.438,-0.434,211,0.0,0.0,0.0,-0.05,-0.99,-0.02,1.00000,-0.00003,0.00007,0.00000,0.022,0.0000
2025,8,21,14:11:45.440,-0.432,213,0.0,0.0,0.0,-0.06,-0.99,-0.01,1.00000,-0.00003,0.00007,0.00000,0.022,0.0000
2025,8,21,14:11:45.442,-0.430,215,0.0,0.0,0.1,-0.06,-1.00,-0.01,1.00000,-0.00003,0.00007,0.00000,0.022,0.0000
2025,8,21,14:11:45.444,-0.428,217,0.0,0.0,0.0,-0.06,-0.99,-0.01,1.00000,-0.00003,0.00007,0.00000,0.022,0.0000
2025,8,21,14:11:45.446,-0.426,219,0.0,0.0,-0.1,-0.06,-1.00,-0.01,1.00000,-0.00003,0.00007,0.00000,0.022,0.0000
2025,8,21,14:11:45.448,-0.424,221,0.0,0.0,-0.1,-0.06,-1.00,-0.02,1.00000,-0.00003,0.00007,0.00000,0.022,0.0000
2025,8,21,14:11:45.450,-0.422,223,0.1,-0.2,0.0,-0.07,-0.99,-0.02,1.00000,-0.00003,0.00007,0.00000,0.022,0.0000
2025,8,21,14:11:45.452,-0.420,225,0.0,0.0,-0.1,-0.06,-0.99,-0.02,1.00000,-0.00003,0.00007,0.00000,0.022,0.0000
2025,8,21,14:11:45.454,-0.418,227,0.0,-0.1,0.0,-0.07,-1.00,-0.01,1.00000,-0.00003,0.00007,0.00000,0.022,0.0000
2025,8,21,14:11:45.456,-0.416,229,0.0,-0.1,0.1,-0.06,-1.00,-0.03,1.00000,-0.00003,0.00007,0.00000,0.022,0.0000
2025,8,21,14:11:45.458,-0.414,231,0.0,-0.2,0.1,-0.07,-0.99,-0.02,1.00000,-0.00003,0.00007,0.00000,0.022,0.0000
2025,8,21,14:11:45.460,-0.412,233,0.0,-0.2,0.0,-0.06,-0.99,-0.01,1.00000,-0.00003,0.00007,0.00000,0.022,0.0000
2025,8,21,14:11:45.462,-0.410,235,0.0,-0.2,0.0,-0.05,-1.00,0.00,1.00000,-0.00003,0.00003,0.00000,0.022,0.0000
2025,8,21,14:11:45.464,-0.408,237,0.0,-0.2,-0.1,-0.07,-0.99,-0.02,1.00000,-0.00003,0.00003,0.00000,0.022,0.0000
2025,8,21,14:11:45.466,-0.406,239,0.1,-0.2,-0.1,-0.06,-0.99,-0.02,1.00000,-0.00003,0.00003,0.00000,0.023,0.0000
2025,8,21,14:11:45.468,-0.404,241,0.1,-0.2,0.1,-0.07,-0.99,-0.01,1.00000,-0.00003,0.00003,0.00000,0.022,0.0000
2025,8,21,14:11:45.470,-0.402,243,0.0,0.0,0.0,-0.06,-0.99,-0.01,1.00000,-0.00003,0.00003,0.00000,0.022,0.0000
2025,8,21,14:11:45.472,-0.400,245,0.1,-0.3,0.0,-0.06,-0.99,-0.01,1.00000,-0.00003,0.00003,0.00000,0.022,0.0000
2025,8,21,14:11:45.474,-0.398,247,0.0,-0.1,0.0,-0.05,-0.99,-0.01,1.00000,-0.00003,0.00003,0.00000,0.023,0.0000
2025,8,21,14:11:45.476,-0.396,249,0.0,-0.2,-0.1,-0.06,-0.99,-0.01,1.00000,-0.00003,0.00003,0.00000,0.022,0.0000
2025,8,21,14:11:45.478,-0.394,1,0.0,-0.2,0.0,-0.05,-0.99,-0.01,1.00000,-0.00003,0.00003,0.00000,0.023,0.0000
2025,8,21,14:11:45.480,-0.392,3,0.0,0.0,0.0,-0.06,-0.99,-0.01,1.00000,-0.00003,0.00003,0.00000,0.023,0.0000
2025,8,21,14:11:45.482,-0.390,5,0.0,0.0,0.0,-0.06,-1.00,-0.01,1.00000,-0.00003,0.00003,0.00000,0.025,0.0000
2025,8,21,14:11:45.484,-0.388,7,-0.1,0.0,-0.1,-0.07,-1.00,-0.01,1.00000,-0.00003,0.00003,0.00000,0.024,0.0000
2025,8,21,14:11:45.486,-0.386,9,0.0,0.0,0.0,-0.06,-1.00,-0.01,1.00000,-0.00003,0.00003,0.00000,0.022,0.0000
2025,8,21,14:11:45.488,-0.384,11,0.0,0.0,0.0,-0.05,-0.99,-0.01,1.00000,-0.00003,0.00003,0.00000,0.022,0.0000
2025,8,21,14:11:45.490,-0.382,13,0.0,0.2,0.0,-0.06,-0.99,-0.01,1.00000,-0.00003,0.00003,0.00000,0.022,0.0000
2025,8,21,14:11:45.492,-0.380,15,0.0,0.2,0.1,-0.05,-0.99,0.00,1.00000,-0.00003,0.00003,0.00000,0.022,0.0000
2025,8,21,14:11:45.494,-0.378,17,0.0,0.0,0.1,-0.06,-1.00,-0.02,1.00000,-0.00003,0.00003,0.00000,0.022,0.0000
2025,8,21,14:11:45.496,-0.376,19,0.0,0.2,0.0,-0.06,-1.00,-0.02,1.00000,-0.00003,0.00003,0.00000,0.022,0.0000
2025,8,21,14:11:45.498,-0.374,21,0.0,0.2,0.0,-0.06,-0.99,-0.02,1.00000,-0.00003,0.00003,0.00000,0.022,0.0000
2025,8,21,14:11:45.500,-0.372,23,0.1,0.1,0.1,-0.05,-1.00,-0.02,1.00000,-0.00003,0.00003,0.00000,0.022,0.0000
2025,8,21,14:11:45.502,-0.370,25,0.0,0.1,0.0,-0.05,-0.99,-0.01,1.00000,-0.00003,0.00003,0.00000,0.022,0.0000
2025,8,21,14:11:45.504,-0.368,27,0.0,0.1,0.0,-0.05,-1.00,-0.01,1.00000,-0.00003,0.00003,0.00000,0.022,0.0000
2025,8,21,14:11:45.506,-0.366,29,0.0,0.2,0.0,-0.06,-0.99,-0.01,1.00000,-0.00003,0.00003,0.00000,0.022,0.0000
2025,8,21,14:11:45.508,-0.364,31,0.0,0.1,0.0,-0.07,-0.99,-0.01,1.00000,-0.00003,0.00007,0.00000,0.022,0.0000
2025,8,21,14:11:45.510,-0.362,33,0.0,0.1,0.0,-0.06,-0.99,-0.02,1.00000,-0.00003,0.00007,0.00000,0.022,0.0000
2025,8,21,14:11:45.512,-0.360,35,0.0,0.1,0.1,-0.06,-0.99,-0.01,1.00000,-0.00003,0.00007,0.00000,0.022,0.0000
2025,8,21,14:11:45.514,-0.358,37,0.0,0.0,0.0,-0.06,-0.98,-0.01,1.00000,-0.00003,0.00007,0.00000,0.022,0.0000
2025,8,21,14:11:45.516,-0.356,39,0.0,0.0,0.0,-0.06,-0.99,-0.02,1.00000,-0.00003,0.00007,0.00000,0.022,0.0000
2025,8,21,14:11:45.518,-0.354,41,0.1,0.0,0.0,-0.06,-0.99,-0.02,1.00000,-0.00003,0.00007,0.00000,0.023,0.0000
2025,8,21,14:11:45.520,-0.352,43,0.0,0.2,0.1,-0.06,-0.99,-0.01,1.00000,-0.00003,0.00007,0.00000,0.022,0.0000
2025,8,21,14:11:45.522,-0.350,45,0.0,0.0,0.0,-0.07,-0.99,-0.02,1.00000,-0.00003,0.00007,0.00000,0.022,0.0000
2025,8,21,14:11:45.524,-0.348,47,0.0,0.0,0.1,-0.06,-0.99,-0.03,1.00000,-0.00003,0.00007,0.00000,0.022,0.0000
2025,8,21,14:11:45.526,-0.346,49,0.0,0.0,0.0,-0.06,-0.99,-0.01,1.00000,-0.00003,0.00007,0.00000,0.022,0.0000
2025,8,21,14:11:45.528,-0.344,51,0.0,0.0,-0.1,-0.05,-0.99,-0.02,1.00000,-0.00003,0.00007,0.00000,0.022,0.0000
2025,8,21,14:11:45.530,-0.342,53,0.0,0.0,0.0,-0.06,-0.99,-0.01,1.00000,-0.00003,0.00007,0.00000,0.022,0.0000
2025,8,21,14:11:45.532,-0.340,55,0.0,0.0,0.0,-0.06,-0.99,-0.01,1.00000,-0.00003,0.00007,0.00000,0.022,0.0000
2025,8,21,14:11:45.534,-0.338,57,0.0,0.0,0.0,-0.06,-1.00,-0.01,1.00000,-0.00003,0.00007,0.00000,0.022,0.0000
2025,8,21,14:11:45.536,-0.336,59,0.0,0.2,0.0,-0.07,-1.00,-0.02,1.00000,-0.00003,0.00007,0.00000,0.022,0.0000
2025,8,21,14:11:45.538,-0.334,61,0.0,0.0,0.1,-0.06,-0.99,-0.02,1.00000,-0.00003,0.00007,0.00000,0.022,0.0000
2025,8,21,14:11:45.540,-0.332,63,0.0,0.0,0.0,-0.06,-0.99,-0.02,1.00000,-0.00003,0.00007,0.00000,0.022,0.0000
2025,8,21,14:11:45.542,-0.330,65,0.0,0.0,0.0,-0.05,-1.00,-0.02,1.00000,-0.00003,0.00007,0.00000,0.022,0.0000
2025,8,21,14:11:45.544,-0.328,67,-0.1,0.0,0.0,-0.06,-0.99,-0.02,1.00000,-0.00003,0.00007,0.00000,0.023,0.0000
2025,8,21,14:11:45.546,-0.326,69,0.0,0.0,-0.1,-0.06,-0.99,-0.01,1.00000,-0.00003,0.00007,0.00000,0.023,0.0000
2025,8,21,14:11:45.548,-0.324,71,0.0,0.0,0.0,-0.06,-0.99,-0.02,1.00000,-0.00003,0.00007,0.00000,0.022,0.0000
2025,8,21,14:11:45.550,-0.322,73,-0.1,0.1,0.0,-0.06,-0.99,-0.01,1.00000,-0.00003,0.00007,0.00000,0.022,0.0000
2025,8,21,14:11:45.552,-0.320,75,0.0,0.0,0.0,-0.06,-0.99,-0.02,1.00000,-0.00003,0.00007,0.00000,0.023,0.0000
2025,8,21,14:11:45.554,-0.318,77,0.0,0.0,0.0,-0.06,-0.99,-0.01,1.00000,-0.00003,0.00007,0.00000,0.022,0.0000
2025,8,21,14:11:45.556,-0.316,79,0.0,-0.2,0.1,-0.06,-0.99,-0.01,1.00000,-0.00003,0.00007,0.00000,0.022,0.0000
2025,8,21,14:11:45.558,-0.314,81,0.0,0.0,0.0,-0.06,-0.99,-0.01,1.00000,-0.00003,0.00007,0.00000,0.022,0.0000
2025,8,21,14:11:45.560,-0.312,83,0.1,0.0,0.0,-0.06,-0.98,-0.02,1.00000,-0.00003,0.00007,0.00000,0.022,0.0000
2025,8,21,14:11:45.562,-0.310,85,0.0,0.0,0.1,-0.06,-0.99,-0.02,1.00000,-0.00003,0.00007,0.00000,0.023,0.0000
2025,8,21,14:11:45.564,-0.308,87,0.0,0.0,0.0,-0.06,-1.00,-0.02,1.00000,0.00000,0.00000,0.00000,0.022,0.0000
2025,8,21,14:11:45.566,-0.306,89,0.0,-0.1,0.0,-0.05,-1.00,-0.01,1.00000,0.00000,0.00000,0.00000,0.022,0.0000
2025,8,21,14:11:45.568,-0.304,91,0.0,-0.1,0.0,-0.06,-1.00,-0.01,1.00000,0.00000,0.00000,0.00000,0.023,0.0000
2025,8,21,14:11:45.570,-0.302,93,0.0,0.0,0.0,-0.06,-0.99,-0.01,1.00000,0.00000,0.00000,0.00000,0.022,0.0000
2025,8,21,14:11:45.572,-0.300,95,0.0,0.0,0.0,-0.06,-0.99,-0.01,1.00000,0.00000,0.00000,0.00000,0.022,0.0000
2025,8,21,14:11:45.574,-0.298,97,0.0,0.0,0.0,-0.06,-0.99,-0.01,1.00000,0.00000,0.00000,0.00000,0.022,0.0000
2025,8,21,14:11:45.576,-0.296,99,0.0,0.0,-0.1,-0.06,-0.98,-0.01,1.00000,0.00000,0.00000,0.00000,0.023,0.0000
2025,8,21,14:11:45.578,-0.294,101,0.0,0.0,0.0,-0.06,-0.99,-0.02,1.00000,0.00000,0.00000,0.00000,0.023,0.0000
2025,8,21,14:11:45.580,-0.292,103,0.0,0.0,0.0,-0.07,-0.98,-0.01,1.00000,0.00000,0.00000,0.00000,0.023,0.0000
2025,8,21,14:11:45.582,-0.290,105,0.0,0.0,0.0,-0.06,-0.99,-0.01,1.00000,0.00000,0.00000,0.00000,0.022,0.0000
2025,8,21,14:11:45.584,-0.288,107,-0.1,-0.2,-0.1,-0.05,-1.00,-0.01,1.00000,0.00000,0.00000,0.00000,0.022,0.0000
2025,8,21,14:11:45.586,-0.286,109,0.0,0.0,0.0,-0.06,-0.99,-0.01,1.00000,0.00000,0.00000,0.00000,0.022,0.0000
2025,8,21,14:11:45.588,-0.284,111,0.0,0.0,-0.1,-0.06,-0.99,-0.02,1.00000,0.00000,0.00000,0.00000,0.022,0.0000
2025,8,21,14:11:45.590,-0.282,113,0.0,-0.1,0.0,-0.07,-0.99,-0.01,1.00000,0.00000,0.00000,0.00000,0.022,0.0000
2025,8,21,14:11:45.592,-0.280,115,0.0,0.0,0.1,-0.07,-0.99,-0.01,1.00000,0.00000,0.00000,0.00000,0.023,0.0000
2025,8,21,14:11:45.594,-0.278,117,0.0,0.0,0.0,-0.07,-1.00,-0.01,1.00000,0.00000,0.00000,0.00000,0.022,0.0000
2025,8,21,14:11:45.596,-0.276,119,-0.1,0.2,0.0,-0.06,-0.99,-0.01,1.00000,0.00000,0.00000,0.00000,0.023,0.0000
2025,8,21,14:11:45.598,-0.274,121,0.1,0.0,0.0,-0.05,-0.99,-0.01,1.00000,0.00000,0.00000,0.00000,0.024,0.0000
2025,8,21,14:11:45.600,-0.272,123,0.0,0.0,0.0,-0.06,-1.00,-0.01,1.00000,0.00000,0.00000,0.00000,0.024,0.0000
2025,8,21,14:11:45.602,-0.270,125,0.0,0.2,0.0,-0.05,-0.99,-0.01,1.00000,0.00000,0.00000,0.00000,0.024,0.0000
2025,8,21,14:11:45.604,-0.268,127,0.0,0.1,0.0,-0.06,-0.98,-0.01,1.00000,0.00000,0.00000,0.00000,0.025,0.0000
2025,8,21,14:11:45.606,-0.266,129,0.0,0.0,-0.1,-0.06,-0.99,-0.01,1.00000,0.00000,0.00000,0.00000,0.025,0.0000
2025,8,21,14:11:45.608,-0.264,131,0.0,0.0,0.0,-0.07,-1.00,-0.01,1.00000,0.00000,0.00000,0.00000,0.024,0.0000
2025,8,21,14:11:45.610,-0.262,133,0.0,0.0,0.0,-0.06,-1.00,-0.01,1.00000,0.00000,0.00000,0.00000,0.025,0.0000
2025,8,21,14:11:45.612,-0.260,135,0.1,-0.1,0.0,-0.06,-1.00,-0.02,1.00000,0.00000,0.00000,0.00000,0.025,0.0000
2025,8,21,14:11:45.614,-0.258,137,0.0,0.1,0.0,-0.06,-0.99,-0.02,1.00000,0.00000,0.00000,0.00000,0.024,0.0000
2025,8,21,14:11:45.616,-0.256,139,0.0,-0.1,0.0,-0.06,-0.99,-0.01,1.00000,0.00000,0.00000,0.00000,0.024,0.0000
2025,8,21,14:11:45.618,-0.254,141,0.0,0.1,0.0,-0.06,-1.00,-0.01,1.00000,0.00000,0.00000,0.00000,0.024,0.0000
2025,8,21,14:11:45.620,-0.252,143,0.0,0.0,0.0,-0.06,-0.99,-0.02,1.00000,0.00000,0.00000,0.00000,0.024,0.0000
2025,8,21,14:11:45.622,-0.250,145,0.1,0.0,0.0,-0.06,-1.00,-0.01,1.00000,0.00000,0.00000,0.00000,0.024,0.0000
2025,8,21,14:11:45.624,-0.248,147,0.0,0.0,0.0,-0.06,-0.99,-0.02,1.00000,0.00000,0.00000,0.00000,0.024,0.0000
2025,8,21,14:11:45.626,-0.246,149,0.1,0.0,0.1,-0.06,-0.99,-0.01,1.00000,0.00000,0.00000,0.00000,0.024,0.0000
2025,8,21,14:11:45.628,-0.244,151,0.0,0.0,0.0,-0.07,-0.99,-0.02,1.00000,0.00000,0.00000,0.00000,0.025,0.0000
2025,8,21,14:11:45.630,-0.242,153,0.0,0.0,-0.1,-0.06,-0.99,-0.01,1.00000,0.00000,0.00000,0.00000,0.024,0.0000
2025,8,21,14:11:45.632,-0.240,155,0.0,0.0,0.0,-0.06,-1.00,-0.02,1.00000,0.00000,0.00000,0.00000,0.024,0.0000
2025,8,21,14:11:45.634,-0.238,157,0.0,0.0,0.0,-0.06,-0.99,-0.02,1.00000,0.00000,0.00000,0.00000,0.024,0.0000
2025,8,21,14:11:45.636,-0.236,159,0.0,0.0,0.0,-0.06,-1.00,-0.02,1.00000,0.00000,0.00000,0.00000,0.024,0.0000
2025,8,21,14:11:45.638,-0.234,161,0.0,0.0,0.0,-0.06,-1.00,-0.01,1.00000,0.00000,0.00000,0.00000,0.024,0.0000
2025,8,21,14:11:45.640,-0.232,163,0.0,0.0,0.0,-0.07,-0.98,-0.01,1.00000,0.00000,0.00000,0.00000,0.025,0.0000
2025,8,21,14:11:45.642,-0.230,165,0.0,0.0,0.0,-0.06,-1.00,-0.02,1.00000,0.00000,0.00000,0.00000,0.023,0.0000
2025,8,21,14:11:45.644,-0.228,167,0.0,0.0,0.0,-0.06,-0.99,-0.01,1.00000,0.00000,0.00000,0.00000,0.022,0.0000
2025,8,21,14:11:45.646,-0.226,169,0.0,0.0,0.0,-0.07,-1.00,-0.01,1.00000,0.00000,0.00000,0.00000,0.022,0.0000
2025,8,21,14:11:45.648,-0.224,171,0.0,0.0,0.1,-0.06,-1.00,-0.02,1.00000,0.00000,0.00000,0.00000,0.022,0.0000
2025,8,21,14:11:45.650,-0.222,173,0.0,0.0,0.0,-0.07,-1.00,-0.02,1.00000,0.00000,0.00000,0.00000,0.022,0.0000
2025,8,21,14:11:45.652,-0.220,175,0.0,0.0,0.0,-0.06,-1.00,0.00,1.00000,0.00000,0.00000,0.00000,0.022,0.0000
2025,8,21,14:11:45.654,-0.218,177,0.0,0.0,0.0,-0.06,-0.99,-0.02,1.00000,0.00000,0.00000,0.00000,0.023,0.0000
2025,8,21,14:11:45.656,-0.216,179,0.0,0.0,0.0,-0.06,-1.00,-0.01,1.00000,0.00000,0.00000,0.00000,0.022,0.0000
2025,8,21,14:11:45.658,-0.214,181,0.0,0.1,-0.1,-0.06,-0.99,-0.01,1.00000,0.00000,0.00000,0.00000,0.022,0.0000
2025,8,21,14:11:45.660,-0.212,183,0.0,0.0,0.0,-0.06,-0.99,-0.01,1.00000,0.00000,0.00000,0.00000,0.023,0.0000
2025,8,21,14:11:45.662,-0.210,185,0.0,0.2,0.1,-0.06,-1.00,-0.02,1.00000,0.00000,0.00000,0.00000,0.022,0.0000
2025,8,21,14:11:45.664,-0.208,187,0.0,0.1,0.1,-0.06,-1.00,-0.02,1.00000,0.00000,0.00000,0.00000,0.022,0.0000
2025,8,21,14:11:45.666,-0.206,189,0.0,0.0,0.0,-0.06,-0.99,-0.01,1.00000,0.00000,0.00000,0.00000,0.022,0.0000
2025,8,21,14:11:45.668,-0.204,191,-0.1,-0.1,-0.1,-0.07,-0.99,-0.02,1.00000,0.00000,0.00000,0.00000,0.022,0.0000
2025,8,21,14:11:45.670,-0.202,193,0.0,0.0,0.0,-0.05,-0.99,0.00,1.00000,0.00000,0.00000,0.00000,0.022,0.0000
2025,8,21,14:11:45.672,-0.200,195,0.0,0.0,0.0,-0.06,-1.00,-0.01,1.00000,0.00000,0.00000,0.00000,0.022,0.0000
2025,8,21,14:11:45.674,-0.198,197,0.0,0.0,-0.1,-0.06,-1.00,0.00,1.00000,0.00000,0.00000,0.00000,0.023,0.0000
2025,8,21,14:11:45.676,-0.196,199,0.1,0.0,0.0,-0.06,-1.00,-0.01,1.00000,0.00000,0.00000,0.00000,0.022,0.0000
2025,8,21,14:11:45.678,-0.194,201,0.0,-0.1,0.0,-0.07,-0.99,-0.03,1.00000,0.00000,0.00000,0.00000,0.022,0.0000
2025,8,21,14:11:45.680,-0.192,203,0.0,0.0,0.0,-0.06,-0.99,-0.02,1.00000,0.00000,0.00000,0.00000,0.022,0.0000
2025,8,21,14:11:45.682,-0.190,205,0.0,0.1,0.0,-0.05,-0.99,-0.02,1.00000,0.00000,0.00000,0.00000,0.023,0.0000
2025,8,21,14:11:45.684,-0.188,207,0.0,0.2,0.0,-0.06,-0.99,-0.01,1.00000,0.00000,0.00000,0.00000,0.022,0.0000
2025,8,21,14:11:45.686,-0.186,209,0.0,0.0,0.1,-0.06,-0.99,-0.01,1.00000,0.00000,0.00000,0.00000,0.023,0.0000
2025,8,21,14:11:45.688,-0.184,211,0.0,0.1,0.0,-0.06,-1.00,-0.01,1.00000,0.00000,0.00000,0.00000,0.023,0.0000
2025,8,21,14:11:45.690,-0.182,213,0.0,-0.1,0.0,-0.06,-0.99,-0.01,1.00000,0.00000,0.00000,0.00000,0.022,0.0000
2025,8,21,14:11:45.692,-0.180,215,-0.1,0.1,0.1,-0.06,-0.99,-0.02,1.00000,0.00000,0.00000,0.00000,0.022,0.0000
2025,8,21,14:11:45.694,-0.178,217,0.0,0.1,-0.1,-0.06,-0.99,-0.02,1.00000,0.00000,0.00000,0.00000,0.022,0.0000
2025,8,21,14:11:45.696,-0.176,219,0.1,0.1,0.0,-0.06,-1.00,-0.02,1.00000,0.00000,0.00000,0.00000,0.022,0.0000
2025,8,21,14:11:45.698,-0.174,221,0.0,0.0,0.0,-0.06,-1.00,-0.01,1.00000,0.00000,0.00000,0.00000,0.022,0.0000
2025,8,21,14:11:45.700,-0.172,223,0.0,0.0,-0.1,-0.06,-0.99,0.00,1.00000,0.00000,0.00000,0.00000,0.022,0.0000
2025,8,21,14:11:45.702,-0.170,225,0.0,0.1,0.0,-0.06,-0.99,-0.01,1.00000,0.00000,0.00000,0.00000,0.022,0.0000
2025,8,21,14:11:45.704,-0.168,227,0.0,0.2,0.0,-0.06,-0.99,-0.01,1.00000,0.00000,0.00000,0.00000,0.022,0.0000
2025,8,21,14:11:45.706,-0.166,229,0.0,0.0,0.0,-0.05,-0.99,-0.01,1.00000,0.00000,0.00000,0.00000,0.023,0.0000
2025,8,21,14:11:45.708,-0.164,231,-0.1,0.0,-0.1,-0.07,-0.99,-0.01,1.00000,0.00000,0.00000,0.00000,0.023,0.0000
2025,8,21,14:11:45.710,-0.162,233,-0.2,0.2,0.1,-0.06,-0.99,-0.02,1.00000,0.00000,0.00000,0.00000,0.022,0.0000
2025,8,21,14:11:45.712,-0.160,235,0.0,0.1,0.0,-0.07,-1.00,-0.01,1.00000,0.00000,0.00000,0.00000,0.022,0.0000
2025,8,21,14:11:45.714,-0.158,237,0.0,0.2,0.0,-0.06,-0.99,-0.01,1.00000,0.00000,0.00000,0.00000,0.022,0.0000
2025,8,21,14:11:45.716,-0.156,239,-0.1,0.1,-0.1,-0.06,-1.00,-0.03,1.00000,0.00000,0.00000,0.00000,0.022,0.0000
2025,8,21,14:11:45.718,-0.154,241,0.0,0.2,-0.1,-0.07,-1.00,-0.01,1.00000,0.00000,0.00000,0.00000,0.023,0.0000
2025,8,21,14:11:45.720,-0.152,243,0.0,0.4,-0.1,-0.05,-0.99,0.00,1.00000,0.00000,0.00003,0.00000,0.022,0.0000
2025,8,21,14:11:45.722,-0.150,245,0.0,0.2,-0.1,-0.06,-0.99,-0.02,1.00000,0.00000,0.00003,0.00000,0.023,0.0000
2025,8,21,14:11:45.724,-0.148,247,0.0,0.0,0.0,-0.06,-0.99,-0.01,1.00000,-0.00003,0.00003,0.00000,0.022,0.0000
2025,8,21,14:11:45.726,-0.146,249,0.0,0.0,0.1,-0.06,-1.00,-0.02,1.00000,-0.00003,0.00003,0.00000,0.022,0.0000
2025,8,21,14:11:45.728,-0.144,1,0.0,0.0,0.0,-0.07,-0.99,-0.01,1.00000,-0.00003,0.00003,0.00000,0.022,0.0000
2025,8,21,14:11:45.730,-0.142,3,0.0,0.0,0.0,-0.06,-1.00,-0.02,1.00000,-0.00003,0.00003,0.00000,0.022,0.0000
2025,8,21,14:11:45.732,-0.140,5,0.0,0.0,0.0,-0.06,-1.00,-0.01,1.00000,-0.00003,0.00003,0.00000,0.022,0.0000
2025,8,21,14:11:45.734,-0.138,7,0.0,0.0,0.0,-0.06,-1.00,-0.01,1.00000,-0.00003,0.00003,0.00000,0.022,0.0000
2025,8,21,14:11:45.736,-0.136,9,0.0,0.0,0.0,-0.06,-0.99,-0.02,1.00000,-0.00003,0.00003,0.00000,0.023,0.0000
2025,8,21,14:11:45.738,-0.134,11,0.0,-0.1,0.0,-0.06,-0.99,-0.03,1.00000,-0.00003,0.00003,0.00000,0.022,0.0000
2025,8,21,14:11:45.740,-0.132,13,0.0,0.1,-0.1,-0.05,-1.00,0.00,1.00000,-0.00003,0.00003,0.00000,0.023,0.0000
2025,8,21,14:11:45.742,-0.130,15,0.0,0.0,0.0,-0.06,-0.99,-0.02,1.00000,-0.00003,0.00003,0.00000,0.022,0.0000
2025,8,21,14:11:45.744,-0.128,17,0.0,0.0,0.0,-0.06,-0.98,-0.02,1.00000,-0.00003,0.00003,0.00000,0.023,0.0000
2025,8,21,14:11:45.746,-0.126,19,0.0,0.0,0.0,-0.05,-1.01,0.00,1.00000,-0.00003,0.00003,0.00000,0.023,0.0000
2025,8,21,14:11:45.748,-0.124,21,0.1,0.0,0.0,-0.05,-1.01,0.01,1.00000,-0.00003,0.00003,0.00000,0.022,0.0000
2025,8,21,14:11:45.750,-0.122,23,-0.2,0.1,0.0,-0.07,-0.98,-0.04,1.00000,-0.00003,0.00003,0.00000,0.023,0.0000
2025,8,21,14:11:45.752,-0.120,25,0.0,-0.1,0.0,-0.06,-0.98,-0.02,1.00000,-0.00003,0.00003,0.00000,0.022,0.0000
2025,8,21,14:11:45.754,-0.118,27,0.0,0.2,0.0,-0.06,-1.01,-0.01,1.00000,-0.00003,0.00003,0.00000,0.023,0.0000
2025,8,21,14:11:45.756,-0.116,29,0.0,-0.1,0.0,-0.06,-1.01,0.00,1.00000,-0.00003,0.00003,0.00000,0.023,0.0000
2025,8,21,14:11:45.758,-0.114,31,0.0,-0.1,0.0,-0.06,-1.00,0.00,1.00000,-0.00003,0.00003,0.00000,0.022,0.0000
2025,8,21,14:11:45.760,-0.112,33,0.0,0.0,0.0,-0.06,-0.98,-0.02,1.00000,-0.00003,0.00003,0.00000,0.023,0.0000
2025,8,21,14:11:45.762,-0.110,35,0.0,0.0,-0.1,-0.06,-0.97,-0.04,1.00000,-0.00003,0.00003,0.00000,0.023,0.0000
2025,8,21,14:11:45.764,-0.108,37,0.1,0.0,0.0,-0.06,-1.01,0.00,1.00000,-0.00003,0.00003,0.00000,0.022,0.0000
2025,8,21,14:11:45.766,-0.106,39,0.0,-0.1,0.0,-0.06,-0.98,-0.01,1.00000,-0.00003,0.00003,0.00000,0.023,0.0000
2025,8,21,14:11:45.768,-0.104,41,-0.1,0.1,0.0,-0.06,-1.00,-0.02,1.00000,-0.00003,0.00003,0.00000,0.022,0.0000
2025,8,21,14:11:45.770,-0.102,43,0.0,0.0,0.0,-0.06,-0.99,-0.02,1.00000,-0.00003,0.00003,0.00000,0.022,0.0000
2025,8,21,14:11:45.772,-0.100,45,0.1,0.0,0.0,-0.06,-0.98,-0.03,1.00000,-0.00003,0.00003,0.00000,0.022,0.0000
2025,8,21,14:11:45.774,-0.098,47,-0.1,0.0,0.0,-0.06,-1.00,-0.01,1.00000,-0.00003,0.00003,0.00000,0.022,0.0000
2025,8,21,14:11:45.776,-0.096,49,0.0,0.0,0.0,-0.07,-1.00,-0.01,1.00000,-0.00003,0.00003,0.00000,0.022,0.0000
2025,8,21,14:11:45.778,-0.094,51,0.0,0.1,0.0,-0.06,-0.99,-0.03,1.00000,-0.00003,0.00003,0.00000,0.022,0.0000
2025,8,21,14:11:45.780,-0.092,53,0.0,0.0,-0.1,-0.06,-0.99,-0.03,1.00000,-0.00003,0.00003,0.00000,0.022,0.0000
2025,8,21,14:11:45.782,-0.090,55,-0.1,0.0,-0.1,-0.06,-1.01,-0.03,1.00000,-0.00003,0.00003,0.00000,0.022,0.0000
2025,8,21,14:11:45.784,-0.088,57,0.0,0.0,0.0,-0.07,-0.99,-0.03,1.00000,-0.00003,0.00003,0.00000,0.022,0.0000
2025,8,21,14:11:45.786,-0.086,59,0.0,0.0,0.0,-0.05,-0.98,-0.02,1.00000,-0.00003,0.00003,0.00000,0.022,0.0000
2025,8,21,14:11:45.788,-0.084,61,0.1,0.0,0.0,-0.06,-0.99,0.00,1.00000,-0.00003,0.00003,0.00000,0.022,0.0000
2025,8,21,14:11:45.790,-0.082,63,0.0,0.1,0.0,-0.06,-0.99,-0.01,1.00000,-0.00003,0.00003,0.00000,0.022,0.0000
2025,8,21,14:11:45.792,-0.080,65,0.1,0.0,0.0,-0.06,-1.03,0.00,1.00000,-0.00003,0.00003,0.00000,0.022,0.0000
2025,8,21,14:11:45.794,-0.078,67,-0.2,0.2,0.0,-0.06,-0.97,-0.04,1.00000,-0.00003,0.00003,0.00000,0.022,0.0000
2025,8,21,14:11:45.796,-0.076,69,-0.3,0.1,0.1,-0.06,-0.99,-0.08,1.00000,-0.00003,0.00003,0.00000,0.023,0.0000
2025,8,21,14:11:45.798,-0.074,71,0.2,0.1,0.0,-0.07,-1.00,0.00,1.00000,-0.00003,0.00003,0.00000,0.022,0.0000
2025,8,21,14:11:45.800,-0.072,73,0.0,0.0,-0.1,-0.06,-1.00,-0.05,1.00000,-0.00003,0.00003,0.00000,0.022,0.0000
2025,8,21,14:11:45.802,-0.070,75,0.0,0.3,0.0,-0.04,-0.98,0.01,1.00000,-0.00003,0.00007,0.00000,0.023,0.0000
2025,8,21,14:11:45.804,-0.068,77,0.0,0.4,0.0,-0.05,-0.97,-0.06,1.00000,-0.00003,0.00007,0.00000,0.022,0.0000
2025,8,21,14:11:45.806,-0.066,79,0.2,0.2,0.0,-0.05,-0.99,-0.03,1.00000,-0.00003,0.00007,0.00000,0.022,0.0000
2025,8,21,14:11:45.808,-0.064,81,-0.2,0.0,-0.1,-0.06,-0.99,-0.04,1.00000,-0.00003,0.00007,0.00000,0.023,0.0000
2025,8,21,14:11:45.810,-0.062,83,0.0,0.0,0.0,-0.06,-1.03,0.01,1.00000,-0.00003,0.00007,0.00000,0.023,0.0000
2025,8,21,14:11:45.812,-0.060,85,0.0,0.0,0.0,-0.06,-0.96,-0.07,1.00000,-0.00003,0.00007,0.00000,0.023,0.0000
2025,8,21,14:11:45.814,-0.058,87,-0.1,0.4,0.1,-0.05,-0.98,-0.04,1.00000,-0.00003,0.00007,0.00000,0.022,0.0000
2025,8,21,14:11:45.816,-0.056,89,0.0,0.2,0.0,-0.06,-0.97,-0.03,1.00000,-0.00003,0.00007,0.00000,0.022,0.0000
2025,8,21,14:11:45.818,-0.054,91,0.0,0.0,-0.1,-0.05,-1.02,0.01,1.00000,-0.00003,0.00007,0.00000,0.023,0.0000
2025,8,21,14:11:45.820,-0.052,93,0.3,0.2,0.0,-0.05,-1.00,0.00,1.00000,-0.00003,0.00010,0.00000,0.023,0.0000
2025,8,21,14:11:45.822,-0.050,95,-0.2,0.2,-0.1,-0.06,-0.98,0.00,1.00000,-0.00003,0.00010,0.00000,0.023,0.0000
2025,8,21,14:11:45.824,-0.048,97,0.1,0.5,0.0,-0.05,-0.98,-0.04,1.00000,-0.00003,0.00010,0.00000,0.023,0.0000
2025,8,21,14:11:45.826,-0.046,99,0.0,-0.1,0.0,-0.06,-1.00,0.00,1.00000,-0.00003,0.00010,0.00000,0.022,0.0000
2025,8,21,14:11:45.828,-0.044,101,0.0,0.0,0.0,-0.07,-0.99,-0.01,1.00000,-0.00003,0.00010,0.00000,0.022,0.0000
2025,8,21,14:11:45.830,-0.042,103,0.0,0.0,-0.1,-0.07,-1.01,0.01,1.00000,-0.00003,0.00010,-0.00003,0.023,0.0000
2025,8,21,14:11:45.832,-0.040,105,0.0,0.3,0.0,-0.04,-1.00,-0.08,1.00000,-0.00003,0.00010,-0.00003,0.022,0.0000
2025,8,21,14:11:45.834,-0.038,107,0.1,-0.2,0.0,-0.05,-1.02,-0.01,1.00000,-0.00003,0.00010,-0.00003,0.022,0.0000
2025,8,21,14:11:45.836,-0.036,109,0.0,0.0,0.1,-0.04,-0.99,-0.02,1.00000,-0.00003,0.00010,-0.00003,0.022,0.0000
2025,8,21,14:11:45.838,-0.034,111,-0.5,-0.3,0.0,-0.05,-0.93,-0.07,1.00000,-0.00003,0.00010,-0.00003,0.023,0.0000
2025,8,21,14:11:45.840,-0.032,113,-0.2,-0.1,0.0,-0.08,-0.98,-0.04,1.00000,-0.00007,0.00010,-0.00003,0.022,0.0000
2025,8,21,14:11:45.842,-0.030,115,0.1,0.0,0.0,-0.04,-0.98,0.00,1.00000,-0.00003,0.00010,-0.00003,0.022,0.0000
2025,8,21,14:11:45.844,-0.028,117,0.1,-0.3,0.0,-0.07,-0.96,0.00,1.00000,-0.00003,0.00007,-0.00003,0.022,0.0000
2025,8,21,14:11:45.846,-0.026,119,-0.3,0.0,0.0,-0.05,-1.02,-0.07,1.00000,-0.00007,0.00007,-0.00003,0.022,0.0000
2025,8,21,14:11:45.848,-0.024,121,0.2,0.2,0.0,-0.01,-1.05,0.00,1.00000,-0.00003,0.00010,-0.00003,0.023,0.0000
2025,8,21,14:11:45.850,-0.022,123,-0.7,0.0,0.0,-0.07,-0.97,-0.17,1.00000,-0.00007,0.00010,-0.00003,0.022,0.0000
2025,8,21,14:11:45.852,-0.020,125,-0.4,-0.2,0.0,-0.05,-1.00,0.04,1.00000,-0.00007,0.00007,-0.00003,0.022,0.0000
2025,8,21,14:11:45.854,-0.018,127,-0.6,0.2,0.1,-0.10,-0.91,-0.14,1.00000,-0.00007,0.00010,0.00000,0.022,0.0000
2025,8,21,14:11:45.856,-0.016,129,0.8,-0.2,0.0,-0.07,-1.08,0.10,1.00000,-0.00007,0.00007,0.00000,0.023,0.0000
2025,8,21,14:11:45.858,-0.014,131,-0.5,-0.4,-0.1,-0.06,-0.99,0.00,1.00000,-0.00007,0.00007,-0.00003,0.022,0.0000
2025,8,21,14:11:45.860,-0.012,133,0.8,0.4,0.0,-0.05,-0.94,0.00,1.00000,-0.00007,0.00007,-0.00003,0.023,0.0000
2025,8,21,14:11:45.862,-0.010,135,-0.4,-0.1,0.0,-0.03,-1.00,-0.18,1.00000,-0.00007,0.00007,-0.00003,0.022,0.0000
2025,8,21,14:11:45.864,-0.008,137,-0.1,0.1,0.0,-0.04,-0.97,0.00,1.00000,-0.00007,0.00007,-0.00003,0.022,0.0000
2025,8,21,14:11:45.866,-0.006,139,-0.4,-0.4,0.0,-0.07,-1.01,-0.08,1.00000,-0.00007,0.00007,-0.00003,0.022,0.0000
2025,8,21,14:11:45.868,-0.004,141,0.1,-0.1,0.0,-0.07,-0.98,-0.06,1.00000,-0.00007,0.00007,-0.00003,0.022,0.0000
2025,8,21,14:11:45.870,-0.002,143,0.0,-0.4,-0.1,-0.03,-1.07,-0.09,1.00000,-0.00007,0.00007,-0.00003,0.023,0.0000
2025,8,21,14:11:45.872,0.000,145,0.3,-0.6,0.0,-0.07,-0.99,0.10,1.00000,-0.00007,0.00003,-0.00003,0.022,0.0000
2025,8,21,14:11:45.874,0.002,147,-0.9,0.5,0.0,-0.05,-0.99,-0.03,1.00000,-0.00010,0.00007,-0.00003,0.022,0.0000
2025,8,21,14:11:45.876,0.004,149,0.1,-1.3,-0.1,-0.08,-1.08,0.10,1.00000,-0.00007,0.00003,-0.00003,0.022,0.0000
2025,8,21,14:11:45.878,0.006,151,1.2,0.4,0.1,-0.07,-0.97,0.08,1.00000,-0.00007,0.00003,-0.00003,0.023,0.0000
2025,8,21,14:11:45.880,0.008,153,-0.2,0.0,0.0,-0.02,-1.02,-0.05,1.00000,-0.00007,0.00003,-0.00003,0.022,0.0000
2025,8,21,14:11:45.882,0.010,155,0.1,0.1,0.1,-0.03,-1.00,0.03,1.00000,-0.00007,0.00003,-0.00003,0.022,0.0000
2025,8,21,14:11:45.884,0.012,157,0.1,-0.6,0.0,-0.08,-0.99,0.05,1.00000,-0.00007,0.00003,-0.00003,0.022,0.0000
2025,8,21,14:11:45.886,0.014,159,0.6,-0.2,0.0,-0.08,-0.98,0.00,1.00000,-0.00003,0.00003,-0.00003,0.023,0.0000
2025,8,21,14:11:45.888,0.016,161,-0.7,0.0,0.0,-0.07,-0.95,-0.12,1.00000,-0.00007,0.00003,-0.00003,0.024,0.0000
2025,8,21,14:11:45.890,0.018,163,1.1,0.5,0.0,-0.05,-1.03,-0.06,1.00000,-0.00003,0.00003,-0.00003,0.024,0.0000
2025,8,21,14:11:45.892,0.020,165,0.0,-0.5,-0.1,-0.09,-1.03,0.03,1.00000,-0.00003,0.00003,-0.00003,0.024,0.0000
2025,8,21,14:11:45.894,0.022,167,-0.3,0.7,0.0,-0.06,-0.92,0.00,1.00000,-0.00003,0.00003,-0.00003,0.024,0.0000
2025,8,21,14:11:45.896,0.024,169,-0.5,0.1,0.0,-0.03,-0.85,-0.09,1.00000,-0.00007,0.00003,-0.00003,0.024,0.0000
2025,8,21,14:11:45.898,0.026,171,0.5,-0.4,-0.1,-0.08,-1.10,0.21,1.00000,-0.00003,0.00003,-0.00003,0.025,0.0000
2025,8,21,14:11:45.900,0.028,173,0.9,0.7,0.0,-0.05,-1.07,0.03,1.00000,-0.00003,0.00007,-0.00003,0.025,0.0000
2025,8,21,14:11:45.902,0.030,175,0.0,0.0,0.0,-0.06,-0.91,0.07,1.00000,-0.00003,0.00007,-0.00003,0.025,0.0000
2025,8,21,14:11:45.904,0.032,177,-0.2,0.8,-0.1,-0.06,-1.06,0.02,1.00000,-0.00003,0.00007,-0.00003,0.024,0.0000
2025,8,21,14:11:45.906,0.034,179,-0.1,1.1,0.0,-0.02,-1.04,0.12,1.00000,-0.00003,0.00010,-0.00003,0.024,0.0000
2025,8,21,14:11:45.908,0.036,181,-0.7,-0.6,0.0,-0.12,-0.97,-0.15,1.00000,-0.00007,0.00007,-0.00003,0.024,0.0000
2025,8,21,14:11:45.910,0.038,183,-1.3,0.4,0.1,-0.08,-0.94,-0.06,1.00000,-0.00007,0.00010,-0.00003,0.025,0.0000
2025,8,21,14:11:45.912,0.040,185,-0.9,0.9,0.0,-0.04,-0.95,-0.08,1.00000,-0.00010,0.00010,-0.00003,0.024,0.0000
2025,8,21,14:11:45.914,0.042,187,0.0,0.3,0.0,-0.04,-1.02,0.00,1.00000,-0.00010,0.00010,-0.00003,0.024,0.0000
2025,8,21,14:11:45.916,0.044,189,0.0,1.2,0.0,-0.04,-1.00,0.09,1.00000,-0.00010,0.00013,-0.00003,0.025,0.0000
2025,8,21,14:11:45.918,0.046,191,0.2,0.5,0.1,-0.07,-0.98,-0.02,1.00000,-0.00010,0.00013,-0.00003,0.025,0.0000
2025,8,21,14:11:45.920,0.048,193,0.6,0.4,-0.1,-0.07,-0.99,-0.06,1.00000,-0.00007,0.00013,-0.00003,0.024,0.0000
2025,8,21,14:11:45.922,0.050,195,-0.1,0.3,0.0,-0.05,-0.99,-0.10,1.00000,-0.00010,0.00017,-0.00003,0.024,0.0000
2025,8,21,14:11:45.924,0.052,197,0.4,0.4,0.0,-0.08,-1.03,0.04,1.00000,-0.00007,0.00017,-0.00003,0.024,0.0000
2025,8,21,14:11:45.926,0.054,199,0.0,0.7,0.1,-0.06,-0.98,-0.01,1.00000,-0.00007,0.00017,-0.00003,0.025,0.0000
2025,8,21,14:11:45.928,0.056,201,0.6,0.5,0.0,-0.04,-1.04,-0.01,1.00000,-0.00007,0.00017,-0.00003,0.025,0.0000
2025,8,21,14:11:45.930,0.058,203,0.2,0.2,0.0,-0.06,-1.04,-0.04,1.00000,-0.00007,0.00020,-0.00003,0.024,0.0000
2025,8,21,14:11:45.932,0.060,205,-0.2,0.4,0.0,-0.06,-0.97,-0.09,1.00000,-0.00007,0.00020,-0.00003,0.025,0.0000
2025,8,21,14:11:45.934,0.062,207,-0.5,0.1,-0.1,-0.07,-0.94,-0.01,1.00000,-0.00007,0.00020,-0.00003,0.025,0.0000
2025,8,21,14:11:45.936,0.064,209,0.1,0.3,0.1,-0.06,-0.96,0.01,1.00000,-0.00007,0.00020,-0.00003,0.025,0.0000
2025,8,21,14:11:45.938,0.066,211,0.1,0.0,0.0,-0.04,-0.97,0.01,1.00000,-0.00007,0.00020,-0.00003,0.025,0.0000
2025,8,21,14:11:45.940,0.068,213,-0.3,0.1,0.0,-0.08,-1.00,-0.11,1.00000,-0.00007,0.00020,-0.00003,0.025,0.0000
2025,8,21,14:11:45.942,0.070,215,0.2,0.0,0.1,-0.07,-1.02,-0.03,1.00000,-0.00007,0.00020,-0.00003,0.025,0.0000
2025,8,21,14:11:45.944,0.072,217,-0.3,0.0,0.0,-0.05,-0.95,-0.02,1.00000,-0.00007,0.00020,-0.00003,0.025,0.0000
2025,8,21,14:11:45.946,0.074,219,0.2,-0.2,0.0,-0.05,-1.02,0.01,1.00000,-0.00007,0.00020,-0.00003,0.024,0.0000
2025,8,21,14:11:45.948,0.076,221,0.0,-0.4,0.1,-0.03,-1.03,-0.01,1.00000,-0.00007,0.00020,-0.00003,0.025,0.0000
2025,8,21,14:11:45.950,0.078,223,0.1,-0.7,0.0,-0.04,-1.00,-0.03,1.00000,-0.00007,0.00017,-0.00003,0.024,0.0000
2025,8,21,14:11:45.952,0.080,225,-0.2,-0.6,0.0,-0.07,-0.99,-0.03,1.00000,-0.00007,0.00017,-0.00003,0.025,0.0000
2025,8,21,14:11:45.954,0.082,227,0.0,-0.7,0.1,-0.02,-1.10,-0.04,1.00000,-0.00007,0.00017,0.00000,0.025,0.0000
2025,8,21,14:11:45.956,0.084,229,0.0,-1.4,0.1,-0.06,-1.07,-0.06,1.00000,-0.00007,0.00013,0.00000,0.025,0.0000
2025,8,21,14:11:45.958,0.086,231,0.0,-0.8,-0.1,-0.02,-1.06,-0.04,1.00000,-0.00007,0.00010,-0.00003,0.025,0.0000
2025,8,21,14:11:45.960,0.088,233,-0.6,-0.4,-0.3,-0.02,-1.13,-0.07,1.00000,-0.00010,0.00010,-0.00003,0.025,0.0000
2025,8,21,14:11:45.962,0.090,235,0.7,-0.7,-0.5,0.04,-1.13,0.14,1.00000,-0.00007,0.00010,-0.00003,0.024,0.0000
2025,8,21,14:11:45.964,0.092,237,1.2,-0.6,-0.1,-0.14,-1.33,0.21,1.00000,-0.00007,0.00007,-0.00003,0.025,0.0000
2025,8,21,14:11:45.966,0.094,239,1.0,-0.4,0.0,-0.16,-1.59,-0.16,1.00000,-0.00003,0.00007,-0.00003,0.025,0.0000
2025,8,21,14:11:45.968,0.096,241,1.1,-1.8,-0.3,0.00,-1.76,0.12,1.00000,0.00000,0.00003,-0.00003,0.025,0.0000
2025,8,21,14:11:45.970,0.098,243,-0.9,1.0,-0.9,-0.01,-1.60,0.07,1.00000,-0.00003,0.00007,-0.00007,0.024,0.0000
2025,8,21,14:11:45.972,0.100,245,0.7,0.2,-1.4,0.18,-2.20,0.02,1.00000,-0.00003,0.00007,-0.00010,0.025,0.0000
2025,8,21,14:11:45.974,0.102,247,0.4,-3.5,-1.3,0.07,-2.42,0.40,1.00000,0.00000,0.00000,-0.00010,0.024,0.0000
2025,8,21,14:11:45.976,0.104,249,-0.3,-3.5,-0.8,0.16,-3.83,0.13,1.00000,-0.00003,-0.00003,-0.00013,0.024,0.0000
2025,8,21,14:11:45.978,0.106,1,-1.8,-7.7,-1.8,-0.01,-5.65,1.07,1.00000,-0.00003,-0.00017,-0.00017,0.024,0.0000
2025,8,21,14:11:45.980,0.108,3,2.0,-6.5,0.0,-0.42,-6.83,0.15,1.00000,0.00000,-0.00027,-0.00017,0.025,0.0000
2025,8,21,14:11:45.982,0.110,5,1.8,-6.0,2.1,-0.07,-10.79,0.71,0.99997,0.00000,-0.00040,-0.00010,0.025,0.0000
2025,8,21,14:11:45.984,0.112,7,4.1,-3.9,-1.7,-0.16,-8.34,-0.32,0.99997,0.00007,-0.00047,-0.00013,0.024,0.0000
2025,8,21,14:11:45.986,0.114,9,-4.0,1.9,-3.7,-0.26,-9.77,-0.02,0.99997,0.00000,-0.00043,-0.00020,0.024,0.0000
2025,8,21,14:11:45.988,0.116,11,4.8,-12.4,1.6,0.34,-9.84,0.46,0.99997,0.00007,-0.00063,-0.00020,0.025,0.0000
2025,8,21,14:11:45.990,0.118,13,-1.6,-19.9,-0.2,-0.04,-9.13,0.58,0.99997,0.00003,-0.00100,-0.00020,0.022,0.0000
2025,8,21,14:11:45.992,0.120,15,0.9,-11.5,-1.2,-1.02,-5.91,-0.85,0.99997,0.00007,-0.00120,-0.00020,0.022,0.0000
2025,8,21,14:11:45.994,0.122,17,-13.2,-24.8,4.2,1.70,-9.62,-1.53,0.99997,-0.00013,-0.00163,-0.00013,0.023,0.0000
2025,8,21,14:11:45.996,0.124,19,-5.3,-48.8,1.5,-0.75,-8.88,2.58,0.99997,-0.00023,-0.00247,-0.00010,0.022,0.0000
2025,8,21,14:11:45.998,0.126,21,-9.4,-11.4,5.6,-1.59,-11.47,5.36,0.99997,-0.00040,-0.00267,0.00000,0.022,0.0000
2025,8,21,14:11:46.000,0.128,23,24.8,-17.1,-4.6,-1.47,-7.87,-0.73,0.99997,0.00000,-0.00297,-0.00010,0.022,0.0000
2025,8,21,14:11:46.002,0.130,25,-3.9,-53.6,-0.8,-0.97,-7.99,-3.53,0.99997,-0.00003,-0.00390,-0.00010,0.022,0.0000
2025,8,21,14:11:46.004,0.132,27,25.6,-24.3,0.0,-0.13,-9.46,-1.08,0.99997,0.00037,-0.00433,-0.00010,0.023,0.0000
2025,8,21,14:11:46.006,0.134,29,11.6,-27.9,-0.7,-0.81,-9.44,3.40,0.99997,0.00060,-0.00483,-0.00013,0.023,0.0000
2025,8,21,14:11:46.008,0.136,31,-8.7,-32.4,-2.1,-0.08,-8.33,-2.07,0.99997,0.00043,-0.00540,-0.00017,0.022,0.0000
2025,8,21,14:11:46.010,0.138,33,22.1,-31.0,-2.5,-0.07,-9.67,0.81,0.99997,0.00083,-0.00593,-0.00020,0.022,0.0000
2025,8,21,14:11:46.012,0.140,35,1.7,-37.9,1.4,0.25,-9.07,-1.73,0.99997,0.00083,-0.00660,-0.00017,0.022,0.0000
2025,8,21,14:11:46.014,0.142,37,5.8,-23.0,9.0,0.50,-8.95,-1.15,0.99997,0.00093,-0.00700,0.00000,0.022,0.0000
2025,8,21,14:11:46.016,0.144,39,-0.8,-30.9,3.3,-0.55,-8.90,0.56,0.99997,0.00093,-0.00753,0.00000,0.022,0.0000
2025,8,21,14:11:46.018,0.146,41,12.6,-12.8,-4.0,-0.39,-8.78,1.80,0.99997,0.00117,-0.00777,-0.00003,0.022,0.0000
2025,8,21,14:11:46.020,0.148,43,-3.9,-3.0,5.3,0.33,-9.17,2.13,0.99997,0.00110,-0.00780,0.00003,0.022,0.0000
2025,8,21,14:11:46.022,0.150,45,3.0,0.9,-0.1,0.45,-8.95,-0.09,0.99997,0.00113,-0.00780,0.00003,0.022,0.0000
2025,8,21,14:11:46.024,0.152,47,2.6,0.7,1.2,0.16,-8.58,-1.53,0.99997,0.00120,-0.00777,0.00007,0.022,0.0000
2025,8,21,14:11:46.026,0.154,49,-4.9,-10.7,4.1,0.05,-8.68,-0.60,0.99997,0.00110,-0.00797,0.00013,0.022,0.0000
2025,8,21,14:11:46.028,0.156,51,-5.1,-5.0,-8.5,-0.24,-8.90,0.16,0.99997,0.00100,-0.00807,0.00000,0.023,0.0000
2025,8,21,14:11:46.030,0.158,53,-1.6,-13.1,-4.9,-0.10,-9.13,0.69,0.99993,0.00097,-0.00830,-0.00007,0.023,0.0000
2025,8,21,14:11:46.032,0.160,55,-1.7,-6.6,4.0,-0.02,-8.88,0.19,0.99993,0.00093,-0.00840,0.00000,0.022,0.0000
